time,seconds_elapsed,z,y,x
1667915995792200700,0.03920068359375,-0.11684066505134105,0.5946303189858794,0.21138415809869765
1667915995802275600,0.049275634765625,-0.062329322662949556,0.5144971902154386,0.21985855645537375
1667915995812350700,0.059350830078125,-0.10541560019552706,0.5625448895476758,0.23015257145464418
1667915995822425600,0.069425537109375,-0.11661270151436329,0.5296126340217888,0.2464040335536003
1667915995832500700,0.079500732421875,-0.12657470808029175,0.31411373408064247,0.21301497417092322
1667915995842576000,0.089575927734375,-0.18006956690251827,0.09669833299368619,0.12608195612728595
1667915995852650800,0.099650634765625,-0.1535597456395626,0.09378142263367771,0.2516512865573168
1667915995862724900,0.109724853515625,-0.0864396815687418,0.23689839245304464,0.40184009445905683
1667915995872799700,0.1197998046875,0.04477086961865425,0.3777972478315234,0.5458043287575245
1667915995882874600,0.12987451171875,0.14001228180229663,0.23369857349842785,0.5233405680149793
1667915995892949500,0.139949462890625,0.25688100390434265,0.10097674096524714,0.5133966816276312
1667915995903024600,0.150024658203125,0.3712538175374269,0.22710779693126676,0.4306470867484808
1667915995913099800,0.160099853515625,0.2658803029179573,0.37571108920723195,0.3890951791763305
1667915995923174700,0.170174560546875,0.18669103086888789,0.1699969395689666,0.21432196511626242
1667915995933248800,0.180248779296875,0.20612170752584932,-0.0735989046961069,-0.022479542833566665
1667915995943323600,0.19032373046875,0.3290226955294609,-0.08227467084378004,-0.004652794241905212
1667915995953398800,0.200398681640625,0.43187692080438134,-0.044622401058673856,-0.0064507835745811455
1667915995963474000,0.210473876953125,0.38315643677711486,0.08197101172208786,0.14039865077137947
1667915995973548500,0.220548583984375,0.20103227543234825,0.17795155183523892,0.2654676304638386
1667915995983623700,0.230623779296875,-0.06997545350193977,0.12070084761083125,0.22893092070519921
1667915995993698600,0.240698486328125,-0.04907996498942375,0.033147359581291676,0.18824059839844703
1667915996003772700,0.250772705078125,-0.04298924689888954,0.18433380021825432,0.2219739411741495
1667915996013847600,0.26084765625,0.0966132850587368,0.23068112537339328,0.1766518674135208
1667915996023922700,0.270922607421875,0.3702963706821203,0.041825317686051126,0.05283668717443943
1667915996033997800,0.280997802734375,0.7135036589086056,-0.062343497318774456,0.009801263046264648
1667915996044072700,0.29107275390625,0.7292278822630643,-0.1523095994479954,-0.12348667893707752
1667915996054147800,0.30114794921875,0.5824947677731513,-0.27953108099922536,-0.2097305456727743
1667915996064222500,0.311222412109375,0.4635124145179987,-0.19969006704315542,-0.20005846196413038
1667915996074296800,0.321296875,0.2845353190273046,-0.13105156123340128,-0.14657237097024917
1667915996084371700,0.331371826171875,0.020530746853351593,-0.013991262082010507,0.03791092072129249
1667915996094446600,0.341446533203125,-0.2959031007379293,0.10990838157013058,0.23014497267007827
1667915996104521700,0.351521728515625,-0.46001872718334197,-0.0059933951959013935,0.20336276420652866
1667915996114596600,0.3615966796875,-0.5530553227990865,-0.15102628163918852,0.14945347936451434
1667915996124671700,0.371671630859375,-0.5279617980748414,-0.22712591710984706,0.2164057856529951
1667915996134745600,0.38174560546875,-0.30629414637088775,-0.334626799146831,0.13041267880797386
1667915996144820700,0.39182080078125,-0.21202830122113225,-0.47525370571613307,0.010863923841714859
1667915996154896000,0.401895751953125,-0.20931845774054525,-0.5807186980113387,-0.003037175738811493
1667915996164970800,0.411970703125,-0.22103929067254066,-0.653140083360672,-0.1419920574426651
1667915996175045600,0.422045654296875,-0.21474398992061614,-0.6947732394754886,-0.2947545152246952
1667915996185120500,0.43212060546875,-0.01885550711750984,-0.6074333941966295,-0.302300692820549
1667915996195195600,0.442195556640625,-0.08295067040920256,-0.38720688121169805,-0.25071429796814915
1667915996205269500,0.45226953125,-0.3320727307498455,-0.17729542601406573,-0.09850129076242446
1667915996215344600,0.4623447265625,-0.5769464859962463,-0.039582799456268546,-0.030306875458359715
1667915996225419800,0.472419677734375,-0.6468786848783493,-0.06267740544825792,0.05113631299734115
1667915996235494700,0.48249462890625,-0.6365542747408152,-0.20029636237323284,-0.020588029998540876
1667915996245569800,0.49256982421875,-0.7806535335958004,-0.15570611001849174,-0.0645890842884779
1667915996255644700,0.502644775390625,-0.5275771826714277,-0.20636435717530546,0.01019815340936184
1667915996265719600,0.512719482421875,-0.2535147423416376,-0.25236732587218286,-0.03974164327979088
1667915996275793700,0.522793701171875,-0.21233166808187962,-0.2774970909535885,-0.06284837810099124
1667915996285868500,0.53286865234375,-0.21816052036583422,-0.3289213540468365,0.011116437298059462
1667915996295943700,0.542943603515625,-0.2700987973958254,-0.267561753198877,0.08135083399713039
1667915996306018600,0.5530185546875,-0.21562252632081508,-0.0693492113623768,0.2388315524727106
1667915996316093700,0.56309375,-0.15354045641720293,0.018337255397066474,0.23954466917812822
1667915996326168800,0.5731689453125,-0.2988005757451057,0.04219868104308843,0.20893618042469023
1667915996336242700,0.58324267578125,-0.3008399726182222,0.0115804746132344,0.12789748111665247
1667915996346317600,0.593317626953125,-0.09876315656900406,-0.23811405185312032,-0.037977556216716765
1667915996356392700,0.603392822265625,-0.013743278670310973,-0.4027998794019222,0.08889876515865325
1667915996366467800,0.6134677734375,-0.053311903470754624,-0.39394090217445044,0.2601502348333597
1667915996376542500,0.62354248046875,-0.29226503649652,-0.5832216572755947,-0.01802548603415489
1667915996386617600,0.63361767578125,-0.14369710779488085,-0.8516481010124087,-0.22019407202005384
1667915996396692500,0.6436923828125,0.10366145000457763,-0.6947668097347021,-0.2820236284673214
1667915996406766600,0.6537666015625,-0.11698679552376269,-0.21482087281541898,-0.15815993291139602
1667915996416841500,0.663841552734375,-0.3542500757664442,0.12125088270902633,0.06409516329169274
1667915996426916600,0.67391650390625,-0.2333025599181652,0.20782588109523056,0.11786124027073383
1667915996436991700,0.68399169921875,-0.14548516025543212,0.16796382630616424,-0.0061859951585531234
1667915996447066600,0.694066650390625,-0.19377718973755836,0.15209318021833895,-0.11681319252252578
1667915996457141800,0.704141845703125,-0.43926527749001976,0.27485066809803244,-0.023038345760107038
1667915996467215600,0.714215576171875,-1.5021686495244502,1.0020949753284454,0.7236573886543511
1667915996477290800,0.724290771484375,-0.24168401929438113,0.0019526045056525616,-0.8617144447356462
1667915996487365600,0.73436572265625,-0.5789975733071565,-0.3546601178720593,-1.4914561168521643
1667915996497440500,0.7444404296875,-0.021702713242173193,0.22578385485112665,-0.8768763580322265
1667915996507515600,0.754515625,-0.019962591576576233,0.18064561322480438,-1.0957441498845815
1667915996517590500,0.764590576171875,0.04529927740693092,0.21263415815979242,-0.5414537323325872
1667915996527665700,0.774665771484375,-0.017107786667346952,0.21406009930968284,-0.2535012983381748
1667915996537739500,0.784739501953125,-0.03683306235671043,0.3645952364310622,-0.04419511555731296
1667915996547814700,0.794814697265625,0.03777531164288521,0.48359278725534677,0.01580605641901493
1667915996557889800,0.804889892578125,0.0795247876137495,0.4263172408506274,-0.04136836769878864
1667915996567964700,0.814964599609375,0.07238017655611038,0.21048779378086327,-0.24265140302181243
1667915996578039600,0.82503955078125,0.21815350610315798,-0.10968275612071156,-0.4429933581024408
1667915996588114400,0.835114501953125,0.38606735578775403,-0.202309309630841,-0.5773351930528878
1667915996598188500,0.8451884765625,0.4330161539673805,-0.19051146593987942,-0.5139823725610971
1667915996608263400,0.855263427734375,0.354987157869339,-0.09760200383514166,-0.36273148838579655
1667915996618338600,0.865338623046875,0.2092991685181856,0.10341595081090926,-0.28014731320142744
1667915996628413700,0.87541357421875,0.008013795107603073,0.1908928664728999,-0.18790742092132567
1667915996638488600,0.885488525390625,-0.29948914253115655,0.5037368728786706,-0.21278116541504857
1667915996648563700,0.895563720703125,-0.6298784502387046,1.0617353511683643,-0.22528116602599618
1667915996658638600,0.905638671875,-0.6244330443143844,1.3520510071627796,-0.22231588647961614
1667915996668712700,0.915712646484375,-0.40397243031263347,1.1409206776946783,-0.5886199726551771
1667915996678787600,0.92578759765625,0.0816027629315853,0.5527960142757743,-1.1577604610756038
1667915996688862500,0.935862548828125,0.41034781056344505,0.07513919294066727,-1.4829413864850998
1667915996698937600,0.9459375,0.22088673045933246,0.068256886081025,-1.3203516544327139
1667915996709012500,0.956012451171875,0.057493573069572444,0.18322423154115675,-0.7392246678814292
1667915996719087600,0.966087646484375,0.14409458267986774,0.17327932224050163,-0.15193535930812357
1667915996729162800,0.976162841796875,0.2974824788838625,0.2345129586212337,0.18188333832621573
1667915996739236600,0.986236572265625,0.267574247354269,0.32128903253749014,0.23050328458845615
1667915996749311700,0.996311767578125,0.03364040379524231,0.21723332251831887,0.11146744758039712
1667915996759386600,1.00638671875,-0.09263035290241241,0.01255333823338151,-0.07643383586108685
1667915996769461500,1.01646142578125,0.005194061511754989,-0.20875760898739099,-0.22291852854788302
1667915996779536600,1.02653662109375,0.0537877042889595,-0.2902003590516746,-0.19392156664431093
1667915996789611500,1.036611572265625,0.23998247607350348,-0.22289120214954017,-0.17001520587801933
1667915996799685600,1.046685546875,0.5429559535890818,-0.021626506200805307,-0.1635503937780857
1667915996809760500,1.056760498046875,0.6164180801630019,0.2797592637319118,-0.08091390388458966
1667915996819835600,1.066835693359375,0.5662450592398643,0.4460661896765232,-0.030003216336667537
1667915996829910500,1.07691064453125,0.5077858560085297,0.48955812540054316,-0.11540624833405017
1667915996839985700,1.086985595703125,0.22439795345067975,0.5455538611277938,-0.2570829562172294
1667915996850060800,1.097060791015625,-0.25372107856869697,0.5890938007120042,-0.35876755319088693
1667915996860134700,1.107134765625,-0.535096472260356,0.4329284756839275,-0.24126550162136554
1667915996870209800,1.117209716796875,-0.6694336310356855,0.26649616979397833,-0.059544952641427513
1667915996880284700,1.12728466796875,-0.4622621221959591,0.1398068223580718,0.01293254680931568
1667915996890359600,1.137359619140625,-0.0764700762182474,0.1447952052298933,0.003707330085337162
1667915996900434400,1.147434326171875,0.33316403311789033,0.10650982517302035,-0.022807167352735996
1667915996910509600,1.157509521484375,0.5268664040535688,-0.044026480992138385,-0.1799760434001684
1667915996920584700,1.167584716796875,0.4754384146332741,0.09969079280793666,0.15272563290297983
1667915996930658600,1.177658447265625,0.45403848372995853,0.23841201188638805,0.1203764379620552
1667915996940733700,1.187733642578125,0.020137948143482208,0.4522054230839014,0.17060265037715433
1667915996950808600,1.19780859375,-0.3366121277451515,0.5399119097180665,0.16698445987999438
1667915996960883700,1.2078837890625,-0.6412813032627105,0.5205084133289755,0.17163111664205788
1667915996970958600,1.21795849609375,-0.73097034201622,0.3428083520367741,0.019904139387607572
1667915996981033500,1.228033447265625,-0.6621294455021619,0.10549261095449328,-0.01704173569381237
1667915996991107600,1.238107666015625,-0.6698457189679146,-0.04692892443537712,0.19927461811006067
1667915997001182500,1.248182373046875,-0.6651613605439662,-0.2658325182534754,0.46556525539457794
1667915997011257600,1.258257568359375,-0.6139402918726206,-0.42264874493833626,0.5593854026034474
1667915997021332500,1.26833251953125,-0.435064903190732,-0.3156162475980818,0.6587570464596152
1667915997031407600,1.27840771484375,-0.2313631162881851,-0.13085063183382153,0.6409706298783421
1667915997041482800,1.288482666015625,0.029521278038620948,-0.09184899326637387,0.6569008971989154
1667915997051556600,1.298556640625,0.1431675309628248,-0.011562573630362748,0.43571284570544955
1667915997061631700,1.3086318359375,0.24928981812298295,0.1819647329993546,0.11594283942878246
1667915997071706600,1.31870654296875,0.14410568859577177,0.328398572281748,-0.1106228134498
1667915997081781500,1.328781494140625,-0.16419862855374812,0.3805327006774023,-0.1756459052413702
1667915997091856600,1.338856689453125,-0.4450841929018497,0.45546413261890406,-0.14123977777063845
1667915997101931500,1.348931640625,-0.508404280167818,0.42257074779868126,-0.11256108803600072
1667915997112006700,1.359006591796875,-0.5424065030127764,0.2999960691399872,-0.08495704179555177
1667915997122080500,1.36908056640625,-0.4930132342904806,0.15655132867097854,-0.015841127732396126
1667915997132155600,1.37915576171875,-0.4663116898477077,0.05633095903098583,0.06370061101615429
1667915997142230500,1.38923046875,-0.3130442051529884,-0.12006006548926233,0.1243979485630989
1667915997152305700,1.3993056640625,-0.042883448436856264,-0.2419382863163948,0.06958265479207039
1667915997162380800,1.409380859375,0.19440496624708176,-0.29698271266818044,-0.1110001223295927
1667915997172455400,1.419455322265625,0.4359393479377031,-0.31025077504217624,-0.1854278790652752
1667915997182529800,1.42952978515625,0.27673253632187844,-0.1896709234625101,-0.2672618204042315
1667915997192604400,1.4396044921875,-0.03790858263373375,-0.23709216145947573,-0.2895090157866478
1667915997202679600,1.449679443359375,-0.2718213834047317,-0.41076150593087074,-0.11203618737906217
1667915997212754400,1.45975439453125,-0.5632277572453022,-0.39670331609249115,-0.054648412771523
1667915997222829600,1.46982958984375,-0.6880027224272489,-0.33154826848432417,-0.037898645761609076
1667915997232904700,1.47990478515625,-0.5669155058473349,-0.3903136150553822,-0.0492740262567997
1667915997242978600,1.489978515625,-0.4432990630507469,-0.35102892176285383,-0.05826835683435201
1667915997253053700,1.5000537109375,-0.3958370546519756,-0.2718319047987461,-0.08308920209705829
1667915997263128600,1.510128662109375,-0.33688451494574545,-0.2203347956649959,-0.12411328640282153
1667915997273203700,1.52020361328125,-0.3259118700325489,-0.1974317667223513,-0.11545768626034258
1667915997283278600,1.530278564453125,-0.4058499146223068,-0.12297156902179121,-0.19487024567127226
1667915997293353500,1.540353515625,-0.3288362330466509,-0.007147789395414292,-0.2840089570656419
1667915997303427600,1.550427490234375,-0.13891338064968586,0.11666735431104898,-0.3038116819053888
1667915997313502500,1.56050244140625,-0.06351414853334426,0.242717453995347,-0.3872279239997268
1667915997323577600,1.57057763671875,-0.09233516934812068,0.3004828297436237,-0.44801966183185576
1667915997333652500,1.580652587890625,-0.2753092255204916,0.28506211938038467,-0.4298340167999267
1667915997343727400,1.590727294921875,-0.5997744038760662,0.14090031668320296,-0.3511240527004003
1667915997353802200,1.60080224609375,-0.8792670525610446,0.04973806357197463,-0.43282092365622515
1667915997363877400,1.61087744140625,-0.9681512046724557,0.04528481049016118,-0.48294192213118076
1667915997373951200,1.620951171875,-0.8551490948706865,0.026153116779774426,-0.4362935682028532
1667915997384026400,1.6310263671875,-0.505927660921216,-0.06707564040720462,-0.3322828663691878
1667915997394101500,1.6411015625,-0.26121464919447895,-0.12108042151294648,-0.3073632369071245
1667915997404176100,1.651176025390625,-0.2140273660838604,-0.11890095858201384,-0.27612638712227344
1667915997414251300,1.661251220703125,-0.2604290517747402,-0.19144458207152784,-0.3319461817607283
1667915997424326400,1.671326416015625,-0.3312888868957758,-0.25449936946481466,-0.29905922668129203
1667915997434400300,1.681400146484375,-0.4187801233440637,-0.2629720873210579,-0.2737584889471531
1667915997444475400,1.691475341796875,-0.4541074573129415,-0.14488156833909452,-0.23128888200819492
1667915997454550300,1.70155029296875,-0.3274246126830578,0.013451309986412524,-0.2591334590062499
1667915997464625400,1.71162548828125,-0.28818507370650764,0.2820482514519244,-0.3206143481463194
1667915997474700300,1.7217001953125,-0.4041998093277216,0.32750147731155155,-0.36198768428117034
1667915997484775400,1.731775390625,-0.4528618411660194,0.3371015186972916,-0.3769873927533626
1667915997494849300,1.741849365234375,-0.5055553204774856,0.27788857448920606,-0.3786497730076313
1667915997504924400,1.75192431640625,-0.4513543592125177,0.15746698221117258,-0.3080865827456116
1667915997514999300,1.761999267578125,-0.3734218092262745,0.08306888996139168,-0.31082068388462064
1667915997525074200,1.77207421875,-0.34147768795490263,0.24165625450462103,-0.2839841148853302
1667915997535149300,1.7821494140625,-0.2623334240913391,0.2825958023320883,-0.32129736197441816
1667915997545224400,1.792224365234375,-0.18406828114986418,0.22034867805987596,-0.3212280961304903
1667915997555299300,1.80229931640625,-0.17028876212239263,0.2174947499334812,-0.4115878737524152
1667915997565373400,1.81237353515625,-0.16455986308157444,0.2602905931521207,-0.35717853043377396
1667915997575448300,1.8224482421875,-0.31096798340082166,0.19266367553770541,-0.2735696883767843
1667915997585523500,1.8325234375,-0.39801322964727875,0.08059563171565533,-0.11977408815473317
1667915997595598300,1.842598388671875,-0.4148679183363914,0.05631481161378324,-0.23200258323550224
1667915997605673200,1.852673095703125,-0.45567806763052937,0.1968423494618386,-0.3853048469826579
1667915997615748400,1.862748291015625,-0.40533261274993415,0.2581068193722516,-0.3726479022443294
1667915997625822200,1.872822265625,-0.2591454417049885,0.25214783790260553,-0.37738983607441184
1667915997635897300,1.8828974609375,-0.16740063946545122,0.14368556348755954,-0.4436185042634606
1667915997645972200,1.89297216796875,-0.12172376091778278,0.08972549830637871,-0.49817368579357857
1667915997656047400,1.90304736328125,-0.20528876383304595,0.10733875027783214,-0.5697673881471157
1667915997666122200,1.913122314453125,-0.22971476455926892,0.09660203301236032,-0.6092685006693005
1667915997676197400,1.923197265625,-0.10481529621481894,0.041283173633366824,-0.5388675152316689
1667915997686271500,1.933271484375,-0.025672785916924474,0.1284072572696954,-0.35930619011223314
1667915997696346400,1.943346435546875,-0.0032248072654008863,0.21528912964798508,-0.3471630401149392
1667915997706421200,1.953421142578125,-0.02239478715956211,0.23299722029604017,-0.4449982681840658
1667915997716496100,1.96349609375,-0.06393851142525672,0.2919219952125102,-0.5374430353865027
1667915997726571300,1.9735712890625,-0.20799393113851547,0.4083559791591018,-0.6487232898317277
1667915997736646400,1.983646484375,-0.28172493778169155,0.44821408842541277,-0.5988748246878385
1667915997746720300,1.99372021484375,-0.35010113939344883,0.40751704411692913,-0.49809302177280185
1667915997756795400,2.00379541015625,-0.19725041880607605,0.24564634705409405,-0.6484805671170354
1667915997766870300,2.013870361328125,0.15717384448349475,0.15558862111866473,-0.819673876863718
1667915997776945400,2.0239453125,0.15050328067839144,0.25393508664555847,-0.8225853803962468
1667915997787020300,2.034020263671875,0.13869476946294307,0.31642047665305434,-0.6960198785357177
1667915997797095400,2.044095458984375,0.2115343802243471,0.41279418080225583,-0.6321405499517917
1667915997807169300,2.054169189453125,0.2565256145954132,0.3948587842043489,-0.6797001735061406
1667915997817244400,2.064244384765625,0.27092764943540093,0.3319784035298973,-0.6938977718152105
1667915997827319300,2.0743193359375,0.28841420628726483,0.19759484832957386,-0.6952179145030677
1667915997837394200,2.084394287109375,0.11497720926702022,0.22506028981693088,-0.7175121638976037
1667915997847469300,2.09446923828125,0.053261634588241576,0.29877967908754943,-0.7020007065109908
1667915997857544400,2.10454443359375,0.150519062769413,0.36266171108521517,-0.6182102242767811
1667915997867619300,2.114619384765625,0.16253800186514852,0.41083055257908996,-0.6981036990724504
1667915997877693400,2.124693359375,0.11155015742778777,0.4042250898994505,-0.7115997249834239
1667915997887768300,2.134768310546875,0.14763620080947876,0.36754992151819166,-0.7082168045468628
1667915997897843500,2.144843505859375,0.18177870890796183,0.40349750627726316,-0.6933217254929244
1667915997907918300,2.15491845703125,0.27150223445296284,0.4172060058951378,-0.6932135889433324
1667915997917993200,2.1649931640625,0.3221417038440704,0.34042803277149797,-0.7561947996437549
1667915997928068400,2.175068359375,0.33505963760614393,0.2274334486890584,-0.804266025982052
1667915997938142200,2.18514208984375,0.33576807813644405,0.25108802665136754,-0.7321759184136987
1667915997948217300,2.19521728515625,0.14945698649585246,0.4167614039327949,-0.6374291578792035
1667915997958292200,2.205292236328125,-0.06351122592389583,0.483329825470224,-0.5041578747697174
1667915997968367400,2.215367431640625,-0.03577098608314991,0.3862251766979694,-0.40133725950345395
1667915997978442500,2.2254423828125,0.13675240322351456,0.3090605423443019,-0.5147049877472222
1667915997988517400,2.235517333984375,0.1541302390038967,0.3839075474053621,-0.6625337885193526
1667915997998591500,2.245591552734375,0.1086076742351055,0.37383550459370013,-0.6830399123881011
1667915998008666400,2.255666259765625,0.28898236156404017,0.3301096139833331,-0.6672277184892446
1667915998018741200,2.2657412109375,0.4466150557309389,0.44567236805334687,-0.6747896051108837
1667915998028816100,2.275816162109375,0.3638344811916351,0.515898873706907,-0.7185023439787328
1667915998038891300,2.285891357421875,0.1477636265814304,0.4324580816932022,-0.7130006778225302
1667915998048966400,2.29596630859375,0.14805997917950153,0.3103236941479146,-0.5570984607100486
1667915998059040300,2.306040283203125,0.34147651891112324,0.3251977304138243,-0.36914603160321713
1667915998069115400,2.316115478515625,0.2555406952112913,0.4592499347679317,-0.44879444559663534
1667915998079190300,2.326190185546875,0.04489537278115749,0.38115138056501746,-0.544915563224256
1667915998089265400,2.336265380859375,-0.14568857387304304,0.2589620479620993,-0.4768500349968672
1667915998099340300,2.34634033203125,-0.3850806828379631,0.2879819523498416,-0.4127363131351769
1667915998109415200,2.356415283203125,-0.4386053522765636,0.37430136853978035,-0.3978760131336748
1667915998119489500,2.366489501953125,-0.09407178388237952,0.27022037794888015,-0.38864568184316156
1667915998129564200,2.376564208984375,0.21529227145314214,0.2101356193423271,-0.38905981560200453
1667915998139639300,2.386639404296875,0.1000596261203289,0.3307166399657726,-0.35621772257760165
1667915998149714200,2.396714111328125,-0.19786299774646757,0.30615853729248044,-0.3269358062528074
1667915998159789300,2.406789306640625,-0.3409288219004869,0.1581901819191873,-0.18375205480754375
1667915998169864400,2.416864501953125,-0.16610300087034702,0.10102350271642208,-0.06927431949526071
1667915998179938300,2.426938232421875,-0.0819645819813013,0.27779125159457324,-0.03124459469988942
1667915998190013400,2.437013427734375,-0.15323065981566905,0.3105149789363146,-0.04443520792350173
1667915998200088300,2.44708837890625,-0.17409107701480386,0.19419789936766027,-0.14884674564301967
1667915998210163500,2.45716357421875,-0.2021142254501581,0.19091960834935306,-0.20548443253561854
1667915998220238300,2.46723828125,-0.25114216799139977,0.12847440422177314,-0.2553825820401311
1667915998230313200,2.477313232421875,-0.21802023511230945,0.10922478322014212,-0.129284989952296
1667915998240387300,2.48738720703125,-0.2910638440132141,0.11521423289328812,-0.003856383167207241
1667915998250462200,2.497462158203125,-0.2842173391193151,0.037918373375386,0.03459346673637628
1667915998260537300,2.507537353515625,-0.22808920918405054,0.00892433408126235,0.01880406919121742
1667915998270612200,2.5176123046875,-0.13030045060515402,-0.03516206040456891,0.03735124101191759
1667915998280687400,2.527687255859375,-0.1588502532631159,-0.09594809914827346,0.0705460929967463
1667915998290762500,2.537762451171875,-0.05191372711062431,-0.16614157931506632,0.11562325208559632
1667915998300837400,2.54783740234375,0.17076222485303877,-0.26890914921984077,0.25367431681752206
1667915998310911500,2.557911376953125,0.12664017453193663,-0.2917962499409914,0.2991865063227713
1667915998320986400,2.567986328125,-0.11696166108250618,-0.22290260032638906,0.31870822226405143
1667915998331061200,2.578061279296875,-0.37359541222751136,-0.14220511567145586,0.4174212560810148
1667915998341140000,2.588139892578125,-0.38560558349490165,-0.10499547508731484,0.4268365885496139
1667915998351214800,2.59821484375,-0.23237550820112227,0.027223960881680248,0.3712466571442783
1667915998361290000,2.6082900390625,-0.2150117009460926,0.07787716653719544,0.18073066115975378
1667915998371363800,2.61836376953125,-0.1792968289643526,-0.01348725808262825,0.17205957118719814
1667915998381439000,2.62843896484375,-0.15914251420795916,-0.1329642629869282,0.20721695541664956
1667915998391513900,2.638513916015625,-0.29732758058309555,-0.08035290900096297,0.30274536784812806
1667915998401589000,2.648589111328125,-0.5745353332012891,-0.12826514538526534,0.5135243996605277
1667915998411664100,2.6586640625,-0.7852940528780221,-0.20226444757580755,0.7079488012604415
1667915998421738800,2.66873876953125,-0.8533733173698186,-0.16846943774074316,0.8091527751103043
1667915998431813000,2.678813232421875,-0.6760363903015851,-0.17929565992057322,0.8560429749704896
1667915998441887700,2.6888876953125,-0.5570651429623366,-0.18106442315876484,0.8716646147333085
1667915998451963000,2.698962890625,-0.560346648851037,-0.17496566789224743,0.8280585511103272
1667915998462038000,2.7090380859375,-0.4529612098872661,-0.23147212962061164,0.7771032937683164
1667915998472113000,2.71911279296875,-0.24968846205174922,-0.28544761156663295,0.718995242062211
1667915998482188000,2.72918798828125,-0.010032733714580536,-0.23587635592892764,0.6266729321956634
1667915998492262000,2.739261962890625,0.09889525851607323,-0.17231266916543245,0.610921820834279
1667915998502337000,2.7493369140625,0.09133271430730819,-0.1881824384704232,0.6922625718288123
1667915998512412000,2.759411865234375,0.1328933897078037,-0.22890490948110817,0.692954207354784
1667915998522487000,2.769487060546875,0.08631576292812823,-0.20608999721333382,0.746968413875997
1667915998532562000,2.77956201171875,-0.06492167724370956,-0.2148706850402057,0.9164902832791209
1667915998542636800,2.78963671875,-0.027833178821206093,-0.237529968354851,1.0472243029959498
1667915998552711000,2.7997109375,0.061515083670616144,-0.1274662500925362,1.0813123044282198
1667915998562785800,2.809785888671875,0.1369248371809721,-0.0650792058929801,0.9445718839034437
1667915998572861000,2.81986083984375,0.08480828097462653,-0.1322040922693908,0.7920990567177534
1667915998582936000,2.82993603515625,0.05055062206387519,-0.2071604029238224,0.6803942932501434
1667915998593011000,2.840010986328125,-0.0007768295913934707,-0.21927622652277348,0.6387900709688663
1667915998603086000,2.850086181640625,-0.0945125133872032,-0.2679071325704455,0.6794820007108151
1667915998613160000,2.860159912109375,-0.1633972490429878,-0.37944077725484965,0.8022460644617676
1667915998623235000,2.870235107421875,-0.15525953529477118,-0.46779096862003205,0.8777972722694277
1667915998633310000,2.88031005859375,-0.07460311330258845,-0.49201720899045465,0.8707640126317739
1667915998643384800,2.890384765625,-0.03504851702749729,-0.5908771039322018,0.8897676960483193
1667915998653460000,2.9004599609375,0.13621113595366477,-0.5885396008953452,0.7869111326858401
1667915998663534800,2.910534912109375,0.1967377931088209,-0.547930381000787,0.6319415202483535
1667915998673609000,2.92060888671875,0.1699631834298372,-0.5868719599440694,0.5939316691972315
1667915998683683800,2.930683837890625,-0.022854221364855765,-0.5739898281477391,0.6423058240048587
1667915998693759000,2.940759033203125,-0.20432079558372496,-0.5313821279123425,0.640665947843343
1667915998703834000,2.950834228515625,-0.22233283761441705,-0.5591821351163089,0.5610358001589775
1667915998713909000,2.960908935546875,-0.16942717685699463,-0.6282454422093927,0.4485296571806073
1667915998723984100,2.970984130859375,-0.17726093922257422,-0.6742486301019788,0.3664052084624767
1667915998734058000,2.98105810546875,-0.25492870079278945,-0.7211996202386916,0.35752164478302
1667915998744133000,2.991133056640625,-0.36452012536823747,-0.7235957215949893,0.4780544423505664
1667915998754207700,3.001207763671875,-0.3691010234177112,-0.7542636854507029,0.5990273849010467
1667915998764283000,3.011282958984375,-0.33514497780203817,-0.8115905236512422,0.5869988011941314
1667915998774358000,3.02135791015625,-0.26209435463845726,-0.825407890471071,0.49728287443369623
1667915998784433000,3.031432861328125,-0.13876432756781576,-0.7812114597395062,0.34901100606918334
1667915998794507000,3.041507080078125,-0.01945113492310047,-0.7699358863569795,0.2954650015816092
1667915998804582000,3.051581787109375,0.09262041603028774,-0.7488527663178741,0.3055380673065781
1667915998814657000,3.061656982421875,0.10580606081783771,-0.7123547811344265,0.3292886529892683
1667915998824732000,3.07173193359375,0.0861824919372797,-0.7242017246641218,0.23424393242150543
1667915998834807000,3.08180712890625,0.148866619387269,-0.836026168988645,0.18780483732968567
1667915998844882000,3.0918818359375,0.15928806015849112,-0.8873311165511608,0.23802783487439155
1667915998854956000,3.1019560546875,0.06337386327981949,-0.8807377096354961,0.30328736577033993
1667915998865031000,3.112031005859375,0.03180675862729549,-0.8901707238912582,0.4011117801845073
1667915998875105800,3.122105712890625,0.02215864031612873,-0.9448433943212031,0.38726357983499765
1667915998885181000,3.132180908203125,-0.019116788402199745,-1.0448895764380692,0.36842531611323354
1667915998895256000,3.142256103515625,-0.05446516515910625,-1.0461999283842742,0.4352938896410167
1667915998905331000,3.1523310546875,-0.1081768816024065,-0.956322089060396,0.5024189221478998
1667915998915405000,3.162405029296875,0.05545826784968376,-1.0166722206048666,0.5386332680843771
1667915998925480000,3.17247998046875,0.23927462006509304,-1.0002220210634172,0.4760889874964952
1667915998935555000,3.18255517578125,0.22740590309500694,-0.8978937193587422,0.3651338733524084
1667915998945630000,3.1926298828125,0.12792320007979868,-0.8659313317783176,0.29884324584305283
1667915998955704800,3.202704833984375,-0.07649462613761425,-0.8548501119241118,0.33276977310329675
1667915998965779000,3.212779052734375,-0.29865093814134597,-0.7627836765147745,0.38973230803608894
1667915998975853800,3.222853759765625,-0.49976387759447094,-0.6806508983597159,0.4165530949443578
1667915998985929000,3.232928955078125,-0.5704968714654445,-0.6692163350231946,0.381356401617825
1667915998996003800,3.24300390625,-0.6491998213022947,-0.5256906382724642,0.33317163190245624
1667915999006079000,3.253078857421875,-0.6623737756520509,-0.503279192239046,0.175342246119678
1667915999016154000,3.263154052734375,-0.49626083790957926,-0.6089497901089489,0.025453297947347162
1667915999026228000,3.27322802734375,-0.300353650406003,-0.6428723718464374,-0.03515504614189267
1667915999036303000,3.28330322265625,-0.10549860230386257,-0.549737430422753,0.009690788409113884
1667915999046378000,3.2933779296875,0.02058627643287182,-0.5516051239907741,0.11675912424772977
1667915999056452900,3.303452880859375,-0.11722703402042388,-0.5326712909400463,0.3083841043874621
1667915999066527700,3.31352783203125,-0.3843523685634136,-0.478716267260164,0.5882483628638089
1667915999076603000,3.323602783203125,-0.6982020448803902,-0.43328532629758115,0.8682669351190329
1667915999086676700,3.3336767578125,-0.8925438827633857,-0.2827785384878516,1.036108011828363
1667915999096751900,3.343751953125,-0.8897422693461179,-0.10112725535184144,0.9815430395565926
1667915999106827000,3.353826904296875,-0.7783242138653993,0.0476660065382719,0.8385444354198872
1667915999116902000,3.36390185546875,-0.8289058155894279,0.23700930548161267,0.61570832445845
1667915999126977000,3.37397705078125,-0.8607178349137306,0.43023441429436204,0.3718139356382191
1667915999137052000,3.384052001953125,-0.7665314847409724,0.5949873157300055,0.22037439702302217
1667915999147126000,3.3941259765625,-0.736406980112195,0.6157844584345817,0.016389993786811826
1667915999157201200,3.404201171875,-0.8463158000737429,0.4366116942413151,-0.11544570356160401
1667915999167276000,3.414276123046875,-0.8944663752585649,0.27321210711076854,0.04565671254247427
1667915999177351000,3.424350830078125,-1.1278729800730942,0.2783715357005596,0.2957530247427523
1667915999187425800,3.43442578125,-1.151572420090437,0.21091098762899635,0.4361974143519997
1667915999197501000,3.4445009765625,-0.9640846858859061,0.13450550107955933,0.4549252034366131
1667915999207574800,3.45457470703125,-0.7068272498846053,0.10717661851868032,0.37207945470660925
1667915999217650000,3.46464990234375,-0.42423838874995706,0.06257774446606636,0.2569255736984312
1667915999227725000,3.47472509765625,-0.1787304272532463,0.04241612318605184,0.24243498379215597
1667915999237800000,3.484800048828125,0.013071078497171401,0.07137012273073196,0.2733092838749289
1667915999247875000,3.494875,0.12254969034790993,0.1342427584901452,0.300949424342066
1667915999257949000,3.504948974609375,0.045185295638442036,0.1720005344763398,0.3764087160825729
1667915999268024000,3.515024169921875,-0.025097616377472876,0.29241774284020067,0.46741249069645996
1667915999278099000,3.525098876953125,-0.04359714966416359,0.43024931960254903,0.5112272286340594
1667915999288173800,3.535173828125,0.018308979150652886,0.5465345427282154,0.461142324385792
1667915999298249000,3.5452490234375,-0.008717559462785721,0.6781514827594161,0.35350700231418014
1667915999308323800,3.55532373046875,0.1350549516558647,0.6249155671343207,0.2037904880993068
1667915999318398000,3.56539794921875,0.29640520504117013,0.5566622612498701,0.07869622783511876
1667915999328472800,3.575472900390625,0.17754735494852064,0.6183810507990419,0.058776160226017234
1667915999338548000,3.5855478515625,0.06318681627511978,0.6036107671685517,0.16965747848153112
1667915999348619500,3.59561962890625,-0.03425824343264103,0.5682425166673958,0.30583062051236626
1667915999358694400,3.6056943359375,-0.01052139401435852,0.5525464964941144,0.31019407641887664
1667915999368769300,3.615769287109375,0.0616390023112297,0.5511879214920103,0.2026204214066267
1667915999378843400,3.625843505859375,0.1404974349707365,0.4736322419941425,0.08380158815011382
1667915999388918300,3.635918212890625,0.2012076319992542,0.4737387711085379,-0.016669102989137173
1667915999398993200,3.6459931640625,0.15057459234893322,0.5247049882359802,-0.08151026234254241
1667915999409068300,3.656068359375,0.27977906441092487,0.3993412633806467,-0.15924568232148884
1667915999419143400,3.666143310546875,0.3219166629165411,0.34964272810146213,-0.24837226488664746
1667915999429217300,3.67621728515625,0.38332536360323427,0.2621820329219103,-0.35621494609862564
1667915999439292400,3.68629248046875,0.3698182317763567,0.12475947535187006,-0.3720785779237747
1667915999449367300,3.6963671875,0.25011925468444823,0.03847103882208466,-0.31270898184925316
1667915999459442400,3.7064423828125,0.1605611488342285,-0.04435585907697678,-0.20735066479891537
1667915999469517600,3.716517578125,0.11144318992197513,-0.04442161778956651,-0.07857289371639489
1667915999479592400,3.726592529296875,0.14316519287526608,-0.000327039997279644,-0.07160743861794472
1667915999489666600,3.73666650390625,0.2666168004989624,0.009252104730904102,-0.21615707158893346
1667915999499741400,3.746741455078125,0.3673679160147905,-0.005735767173022032,-0.4231823038257658
1667915999509816300,3.75681640625,0.37727322395741936,-0.0584235473960638,-0.5644793647415935
1667915999519891200,3.76689111328125,0.3517261102467775,-0.15133841632828116,-0.5928185933887958
1667915999529966300,3.77696630859375,0.27581249886751175,-0.2196105730436742,-0.5187725294470786
1667915999540041500,3.78704150390625,0.2073293297499418,-0.26692513579577204,-0.38532077520415187
1667915999550115300,3.797115234375,0.23083880015313624,-0.3275869636379182,-0.286267257386446
1667915999560190500,3.8071904296875,0.23236674037277696,-0.34795126788318154,-0.29673385247364636
1667915999570265300,3.817265380859375,0.22224749741852282,-0.35384091044366356,-0.37131153907403347
1667915999580340500,3.827340576171875,0.32231063067018983,-0.4194371259480715,-0.46722383625656366
1667915999590415400,3.837415283203125,0.2853922281175852,-0.37897768978774543,-0.5766904654085636
1667915999600489500,3.847489501953125,0.16679507478773592,-0.35609278102368114,-0.6907070129498839
1667915999610564400,3.857564453125,0.07585749727785587,-0.418407636769861,-0.7178288286313415
1667915999620639200,3.86763916015625,-0.029650457376241682,-0.4636003850623965,-0.6431782229252159
1667915999630714400,3.87771435546875,-0.09712240362465381,-0.39988369969427584,-0.6285217749327421
1667915999640789200,3.887789306640625,-0.0927349823206663,-0.3187231275722384,-0.6767088827356695
1667915999650864400,3.897864501953125,-0.14951543868482112,-0.28835838444679973,-0.7417926186732947
1667915999660938200,3.907938232421875,-0.21934534623622892,-0.29903000058680773,-0.8477914255842566
1667915999671013400,3.918013427734375,-0.3219248462229967,-0.32628099560588597,-0.9298774419881403
1667915999681088500,3.928088623046875,-0.36050212189853187,-0.2568538236364722,-0.896032893922925
1667915999691163400,3.938163330078125,-0.3627016777694225,-0.14990809126421809,-0.870585879585892
1667915999701238300,3.94823828125,-0.2823141358464956,-0.11400471097305416,-0.9668560502953827
1667915999711312400,3.9583125,-0.2095434986680746,-0.08033025877773761,-1.091301637392491
1667915999721387300,3.96838720703125,-0.22525836967229843,-0.046285804226249457,-1.263281421341747
1667915999731462100,3.978462158203125,-0.27804712605178356,-0.10805793139785527,-1.3415776900738476
1667915999741537300,3.988537353515625,-0.2530629069209099,-0.15093801883384583,-1.3331252112880347
1667915999751612400,3.9986123046875,-0.2961474308878183,-0.16561302539631723,-1.2737129451155662
1667915999761687300,4.008687255859375,-0.3443710713088512,-0.21895357043966648,-1.1218912753149866
1667915999771761400,4.018761474609375,-0.37935178379714485,-0.24734964384064076,-0.996159447799623
1667915999781836300,4.028836181640625,-0.34755905369520185,-0.27430194817408915,-1.0115054854914545
1667915999791911400,4.038911376953125,-0.23394553399682044,-0.3116283470056951,-1.0720400336921214
1667915999801986600,4.048986572265625,-0.21671850486397742,-0.3070757982678711,-1.0430157453902065
1667915999812061200,4.059061279296875,-0.20933307078778743,-0.33345220240950585,-0.9864913096137344
1667915999822135600,4.069135498046875,-0.26443127315342424,-0.30945012618377804,-0.9187576436892151
1667915999832210200,4.079210205078125,-0.4081815724402666,-0.3117500736892223,-0.8236619235865771
1667915999842285300,4.089285400390625,-0.4082674971580505,-0.4499187734514475,-0.7142508240140975
1667915999852360200,4.099360107421875,-0.23924013327360152,-0.4783643850825727,-0.6359342431463301
1667915999862435300,4.109435302734375,0.008335282146930694,-0.3901575477108359,-0.6132984868377447
1667915999872510500,4.119510498046875,0.1823240678310394,-0.4008542982921004,-0.6141676708877086
1667915999882584300,4.129584228515625,0.15272972455620765,-0.36396979800909757,-0.6355049118183553
1667915999892659500,4.139659423828125,0.05735094972848892,-0.3334405119717121,-0.5852597024418413
1667915999902734300,4.149734375,0.05355857170820236,-0.3804740658253431,-0.46887657189965243
1667915999912809500,4.1598095703125,0.13136544948816298,-0.34309652132838964,-0.3086237583622336
1667915999922884400,4.16988427734375,0.0631856472313404,-0.24541852964758873,-0.1941103672146797
1667915999932958500,4.17995849609375,-0.025454759252071378,-0.2638324304774403,-0.15889628436192868
1667915999943033300,4.190033447265625,-0.13857844960689544,-0.28193302757441996,-0.10174772533774375
1667915999953108200,4.200108154296875,-0.38987902303040023,-0.17972908290177583,0.032101796051114795
1667915999963183400,4.210183349609375,-0.6726730513483286,-0.12927315338402987,0.21835677359029648
1667915999973258200,4.22025830078125,-0.9101613725185393,-0.0502813036032021,0.5181419764585793
1667915999983332400,4.230332275390625,-1.038903487765789,0.14835896212607622,0.6918306101523339
1667915999993407200,4.2404072265625,-1.0661597434818744,0.40077889496833086,0.7901930769659579
1667916000003482400,4.250482421875,-1.0204688364088534,0.5500896048612892,0.794664961683005
1667916000013557500,4.2605576171875,-0.8283248008310794,0.5835501220449805,0.5717956791043282
1667916000023632400,4.27063232421875,-0.414562797909975,0.5033069570288062,0.34165538260936734
1667916000033707300,4.280707275390625,-0.11123042395412922,0.33778190217688675,0.1666375461384654
1667916000043781400,4.290781494140625,0.19415712896585463,0.21613135262578725,0.1876990388676524
1667916000053856300,4.300856201171875,0.4034083666890859,0.14108809434026479,0.34028292521238324
1667916000063931400,4.310931396484375,0.42423078996539115,0.0572711624905467,0.5711966902978718
1667916000074006300,4.32100634765625,0.32681612539589405,-0.045885260601341724,0.8049801656007767
1667916000084081400,4.331081298828125,0.14485095400512218,-0.16021701157167553,0.9390706561386585
1667916000094155300,4.3411552734375,0.06241992355585098,-0.24056202952712774,1.032175494685024
1667916000104230400,4.35123046875,0.05911503679156303,-0.26476182028204204,1.0470949775278569
1667916000114305300,4.36130517578125,0.04080722668468952,-0.23779694872796533,1.0211853141151368
1667916000124380400,4.37138037109375,-0.03534136249423027,-0.23772739062309264,1.0171566431209444
1667916000134454300,4.381454345703125,-0.04755494737923145,-0.2352104393661022,1.0204742432363332
1667916000144529400,4.391529296875,-0.029099253234267233,-0.18736381556391715,0.9819196177840233
1667916000154604500,4.4016044921875,-0.06844575971662997,-0.21276801367253065,0.9387833636298775
1667916000164679200,4.41167919921875,-0.20530688401162622,-0.25082564938813445,0.9867059752777219
1667916000174754300,4.42175439453125,-0.39474633680582044,-0.24136896199584007,1.1204150652825833
1667916000184828200,4.431828125,-0.5325742603063583,-0.21002192983478307,1.1566453394405543
1667916000194903300,4.4419033203125,-0.5330412932962179,-0.2209834688320756,1.1845432540610432
1667916000204978400,4.451978515625,-0.5295826772749423,-0.07045812245234846,1.0915537124574184
1667916000215053300,4.46205322265625,-0.4438777397215366,0.037177199619263405,0.9541092353165149
1667916000225128400,4.47212841796875,-0.45966976761519907,0.052420215328037735,0.7582777433976531
1667916000235202300,4.482202392578125,-0.43472997214794157,0.037752076897770166,0.565722642800957
1667916000245277400,4.49227734375,-0.45714697113931174,0.045509705287218094,0.39046471396386623
1667916000255352300,4.502352294921875,-0.3760118257194757,-0.03598623626902699,0.35986309334263206
1667916000265427500,4.512427490234375,-0.12835633080005646,-0.22581278868466614,0.4250885758385062
1667916000275502300,4.52250244140625,0.12720599172115324,-0.3100676735602319,0.4120806257054209
1667916000285576400,4.532576416015625,0.40165597006380555,-0.3701747901290655,0.38440366035923357
1667916000295651300,4.5426513671875,0.5588654703825712,-0.4974377727344632,0.4103479566939175
1667916000305726200,4.552726318359375,0.6607271774888038,-0.6437604067273438,0.39287630515024063
1667916000315801300,4.56280126953125,0.7280909871876239,-0.7469789352700114,0.3773348910167813
1667916000325876200,4.572876220703125,0.7453747149437665,-0.8140637818969786,0.39927959632128474
1667916000335951400,4.582951416015625,0.7242518474161624,-0.9155502259500324,0.4545541781671345
1667916000346025500,4.593025390625,0.5686573810786009,-0.9181690301463007,0.5802610173717141
1667916000356100600,4.6031005859375,0.4058195194840431,-0.8884110207423567,0.698100776463002
1667916000366175500,4.613175537109375,0.343494872996211,-0.9233769740529358,0.7154574233248829
1667916000376250600,4.623250732421875,0.16165771189928055,-0.8915839516900479,0.6518228632822632
1667916000386325500,4.633325439453125,0.019626491490006445,-0.8611848679035902,0.605794979339838
1667916000396399600,4.643399658203125,-0.03363338953256607,-0.8012767810381949,0.589249648860842
1667916000406474500,4.653474609375,-0.19867022247612476,-0.6860211932212114,0.556949553758651
1667916000416549400,4.66354931640625,-0.23666472982764242,-0.7019105440095067,0.5391999620564282
1667916000426624500,4.67362451171875,-0.3897591960430145,-0.6415156965404748,0.5290241666093468
1667916000436699400,4.683699462890625,-0.5091828633248806,-0.6358318056851625,0.4951251118779182
1667916000446773500,4.6937734375,-0.4209522066861391,-0.7492084478877484,0.3770646957732737
1667916000456848400,4.703848388671875,-0.3366957143753767,-0.7799556144595146,0.33209494258165356
1667916000466923500,4.713923583984375,-0.3946989905327558,-0.7920873662799597,0.35839404370337724
1667916000476998700,4.72399853515625,-0.43977439605593677,-0.8490203828573226,0.37666020662561056
1667916000487073500,4.734073486328125,-0.4874298812001943,-0.83412384249866,0.39757030818536876
1667916000497147600,4.744147705078125,-0.732544459465146,-0.7995596018567681,0.40106370325908064
1667916000507222500,4.754222412109375,-0.9763292504310608,-0.8444315937623381,0.4464253783777356
1667916000517297400,4.76429736328125,-1.1974930442661047,-0.8180100353047252,0.5610372614637017
1667916000527372500,4.77437255859375,-1.2594447657883165,-0.8151626830495894,0.5991551029339433
1667916000537447400,4.784447509765625,-1.1272539713919163,-0.846248287795484,0.5440183221235871
1667916000547521500,4.794521484375,-1.0006658193081617,-0.8211699606403708,0.5578663763426244
1667916000557596400,4.804596435546875,-0.8156611340910196,-0.8181827615231275,0.468024192854017
1667916000567671600,4.814671630859375,-0.6167571028590202,-0.7996870276287198,0.4101730385184288
1667916000577746400,4.824746337890625,-0.5212035559862852,-0.8388210604041815,0.40259968065470453
1667916000587821600,4.834821533203125,-0.5033236159026623,-0.829133194604516,0.4425643190354109
1667916000597896400,4.844896484375,-0.6144546711355447,-0.7176353518858551,0.609007365515083
1667916000607970600,4.854970458984375,-0.7461182267874479,-0.6470201391756534,0.7177512333504855
1667916000618045700,4.865045654296875,-0.8587561794519424,-0.5655838188521564,0.7650937070228159
1667916000628120300,4.875120361328125,-0.8039180893272161,-0.44805005697011946,0.8044640327721834
1667916000638195500,4.885195556640625,-0.7492354820251464,-0.23253201393708586,0.7279591775014996
1667916000648270300,4.895270263671875,-0.7618202383100986,-0.05009323368519544,0.5842040559090673
1667916000658344400,4.905344482421875,-0.6442044972330332,0.033386136773228645,0.4758762215286493
1667916000668419300,4.91541943359375,-0.393736282980442,0.03456774777323007,0.27184564106315373
1667916000678494500,4.925494384765625,-0.20889526389241217,0.06925882966518401,0.12508432339206338
1667916000688569600,4.935569580078125,-0.2186497651875019,0.09748466106578707,0.021280250046402216
1667916000698644500,4.94564453125,-0.37584114532768725,0.06393193555399775,-0.039069296976178884
1667916000708718600,4.955718505859375,-0.6060492463618516,-0.004919920745491981,0.06739552001133561
1667916000718793500,4.96579345703125,-0.7311825234621763,0.07296411392390728,0.21380539389625192
1667916000728868600,4.97586865234375,-0.6843383547008037,0.17717121511250733,0.21633739659190176
1667916000738943500,4.985943603515625,-0.5161620546877383,0.2418869945205748,0.08473419282510876
1667916000749018400,4.996018310546875,-0.4112491433173418,0.33814883579313754,-0.11024082839488983
1667916000759093500,5.006093505859375,-0.4465256238818168,0.4335204502277076,-0.16622838081568478
1667916000769168400,5.01616845703125,-0.5440741439640522,0.5027176128335297,-0.06026274552196264
1667916000779242500,5.026242431640625,-0.5292202737033367,0.5964191020987928,0.0554990382514894
1667916000789317400,5.0363173828125,-0.5512064800620079,0.6947934054806828,0.10798004385605454
1667916000799392500,5.046392578125,-0.5413742373555899,0.730696201249957,0.18510989915728568
1667916000809467600,5.056467529296875,-0.4755366143107414,0.797157801412046,0.25330942902788517
1667916000819542500,5.06654248046875,-0.35588498349189757,0.9171563459724187,0.1982553580649197
1667916000829616600,5.07661669921875,-0.2577320677757263,1.0342441176526247,0.12160232649520039
1667916000839691500,5.08669140625,-0.11838789449334144,1.0863691494263708,0.02128682591766119
1667916000849766400,5.096766357421875,0.17727204513847827,1.0775813012063502,-0.08489493634477258
1667916000859841500,5.106841552734375,0.42019875797033307,1.0788114275231957,-0.21951237336620688
1667916000869916400,5.11691650390625,0.6112830553621054,1.0073059879750013,-0.2738432446211576
1667916000879990500,5.126990478515625,0.6677098759829998,0.9349035995870828,-0.16852555184215307
1667916000890065400,5.1370654296875,0.6899585326701402,0.9101718939125537,-0.05982815349698067
1667916000900140500,5.147140625,0.7491355287820101,0.8282420909836887,0.06336743353903293
1667916000910215400,5.15721533203125,0.7351549342244863,0.755948423667252,0.14316241639629004
1667916000920290600,5.16729052734375,0.6168775143682956,0.7426917594701051,0.21410525362566113
1667916000930364400,5.177364501953125,0.6031985331058501,0.6896414295449853,0.21858619843199847
1667916000940439600,5.187439453125,0.6159802732676267,0.6336398485988378,0.04600216497927904
1667916000950514400,5.197514404296875,0.5175824428796768,0.644670945701003,0.11269552807062863
1667916000960589300,5.20758935546875,0.4612614207208156,0.5539136931940913,-0.049181379537284374
1667916000970664400,5.21766455078125,0.452243417006731,0.48420463554337617,-0.028244536101073026
1667916000980738300,5.22773828125,0.5486205552220345,0.34715880233123897,-0.08699205475449562
1667916000990813400,5.2378134765625,0.6582645867675543,0.1981710407823324,-0.07570815193504095
1667916001000888600,5.247888671875,0.7534563145905733,0.0664712447732687,-0.08321165943294763
1667916001010963500,5.25796337890625,0.7733996169447899,-0.03247428262531757,-0.049203006847202774
1667916001021038600,5.26803857421875,0.6790981159597634,-0.13209171793609856,0.021550299159437417
1667916001031112400,5.278112548828125,0.3992781350165605,-0.1951741970539093,0.08942337355464697
1667916001041187600,5.2881875,-0.092295421859622,-0.21958236986249685,0.09916618441194296
1667916001051262500,5.298262451171875,-0.45855566889345645,-0.34321342570632696,0.08506196347475051
1667916001061337300,5.30833740234375,-0.5555921478003263,-0.47259763824939727,0.031187311554700135
1667916001071412500,5.31841259765625,-0.4956038353055715,-0.44233694002032276,-0.06150982297360897
1667916001081486300,5.328486328125,-0.37706688773036,-0.4157641365237534,-0.1355693309187889
1667916001091561500,5.3385615234375,-0.25809213325977326,-0.43317265970334407,-0.23870032730847596
1667916001101636400,5.34863623046875,-0.15383563997149466,-0.5087368731230497,-0.34427287163138387
1667916001111711500,5.35871142578125,-0.13115385256409645,-0.6025635962031781,-0.4056899017550051
1667916001121786600,5.36878662109375,-0.3084779201507568,-0.6861509570807218,-0.35053470850512386
1667916001131860500,5.378860595703125,-0.4427069423764944,-0.7384639126420021,-0.11368687719553708
1667916001141935600,5.388935546875,-0.4096498914271593,-0.742966192497313,-0.042028292912244795
1667916001152010500,5.399010498046875,-0.2518377490401268,-0.7509592370778322,-0.15578385142982004
1667916001162085600,5.409085693359375,-0.17332476881742476,-0.7094656355641782,-0.33913463196009397
1667916001172160500,5.419160400390625,-0.10740472818613052,-0.6605629268378019,-0.5179110903121531
1667916001182234600,5.429234619140625,-0.06064706866443157,-0.6413952850311995,-0.7134699027694761
1667916001192309500,5.4393095703125,-0.12125555888414383,-0.626226065210998,-0.7935442870900035
1667916001202384400,5.44938427734375,-0.2443126142323017,-0.7006997069150209,-0.698362788400054
1667916001212459500,5.45945947265625,-0.3801461490452289,-0.7019745491564273,-0.536905275247991
1667916001222534400,5.469534423828125,-0.5148305138230324,-0.6726238053791225,-0.4102300294026732
1667916001232608500,5.4796083984375,-0.5649141028970479,-0.7509022461935877,-0.41697716557532544
1667916001242683400,5.489683349609375,-0.5501286216974258,-0.7037377594366669,-0.5220940750852227
1667916001252758500,5.499758544921875,-0.5390682985007763,-0.5655145530082285,-0.5817153078332543
1667916001262833700,5.509833740234375,-0.6020335809797048,-0.4444049784660339,-0.5822095210909843
1667916001272907500,5.519907470703125,-0.7659615758985281,-0.2605719673767686,-0.5597521900892257
1667916001282982700,5.529982666015625,-0.8633680571615695,-0.165916538387537,-0.608846183604002
1667916001293057500,5.5400576171875,-0.8707517376720905,-0.1365961897484958,-0.6402049062028526
1667916001303132400,5.55013232421875,-0.8120370983749627,-0.12456219921410083,-0.5899715333946048
1667916001313207300,5.560207275390625,-0.5503647685408591,-0.13734656972438097,-0.513127655427903
1667916001323281400,5.570281494140625,-0.4750964693278074,-0.019139146364480254,-0.4587472459428012
1667916001333356300,5.580356201171875,-0.5029559516340494,-0.013580635454505682,-0.43916576263830065
1667916001343434500,5.5904345703125,-0.5195721553921699,-0.08600771989226341,-0.4558228829286992
1667916001353509600,5.600509521484375,-0.43187575176060194,-0.12587620442211628,-0.42603608582168817
1667916001363584800,5.610584716796875,-0.3101531598865986,-0.04283244890198111,-0.3326303646326065
1667916001373658600,5.62065869140625,-0.3129232091218233,0.0760521430671215,-0.21516674537733196
1667916001383733800,5.630733642578125,-0.34017771127223967,0.037666152179986236,-0.06996668567359447
1667916001393808600,5.64080859375,-0.5944862343400716,0.07894698772579431,0.16076938475742936
1667916001403883800,5.6508837890625,-0.9041799600213766,0.1896129096649587,0.30925051195845005
1667916001413959000,5.660958984375,-1.0774416004747152,0.2922914861120283,0.4313566963225603
1667916001424032800,5.67103271484375,-1.0840221479088068,0.5040456465668977,0.5146249082483351
1667916001434108000,5.68110791015625,-1.0162748918503521,0.7603770537644624,0.4571066391289234
1667916001444182500,5.6911826171875,-0.789367585927248,0.9068936028942465,0.3827797124192118
1667916001454257700,5.701257568359375,-0.5327279895633459,0.9993027142614126,0.22578648519963024
1667916001464332500,5.71133251953125,-0.19990239461958406,0.9297624373063444,0.09269231222271919
1667916001474406700,5.72140673828125,0.005293430233001709,0.7655207002632319,-0.0013739187017083167
1667916001484481500,5.7314814453125,-0.0463894107311964,0.6661556322783231,0.07394874104708432
1667916001494556700,5.741556640625,-0.1434989548742771,0.5894970477506518,0.33514468554109333
1667916001504631800,5.7516318359375,-0.17313655276894568,0.5141394628189504,0.6537753125242889
1667916001514706700,5.761706787109375,-0.14699439577460288,0.4579552187822759,0.8961378156021237
1667916001524780800,5.77178076171875,-0.019824644410610198,0.44188773494809863,0.9136950996026396
1667916001534855700,5.781855712890625,0.11836918979287146,0.30341508380323645,0.7943006584152579
1667916001544930800,5.791930908203125,0.09663783497810363,0.21727365452870726,0.7902434919789433
1667916001555005700,5.802005615234375,-0.03277414235472679,0.19655571454018353,0.7905942051127552
1667916001565079800,5.812079833984375,-0.12104922265708445,0.16106354539841414,0.9094624304689466
1667916001575154700,5.82215478515625,-0.16062427719831465,0.13634645277112722,1.0431886177390812
1667916001585229600,5.8322294921875,-0.18265841435194013,0.11206702090874314,1.1476384416423737
1667916001595304700,5.8423046875,-0.1431108323395252,0.10205123832896351,1.2362244875900448
1667916001605379600,5.852379638671875,-0.21070435914099214,0.2611896608836949,1.2560083615988493
1667916001615453700,5.86245361328125,-0.2929121022284031,0.39034167210608717,1.169292639567703
1667916001625528600,5.872528564453125,-0.23918109656274317,0.4737855328597128,1.0499845614895225
1667916001635603700,5.882603759765625,-0.2616711607903242,0.5872543833903968,0.8162957787327468
1667916001645678800,5.892678955078125,-0.16591887647509573,0.54515054102391,0.5996629063256085
1667916001655753700,5.902753662109375,0.15554010580182073,0.4603935518451035,0.44154900451302526
1667916001665827800,5.912827880859375,0.45255613621771335,0.41305268560796976,0.3129942285314202
1667916001675902700,5.92290283203125,0.717070411479473,0.32172391682341694,0.3067597180560231
1667916001685977600,5.9329775390625,0.7316074708759784,0.1869407678462565,0.4550346551604569
1667916001696052700,5.943052734375,0.5309568882375956,0.014104805459082126,0.668019818715006
1667916001706127600,5.953127685546875,0.3144862206548452,-0.05713379984647035,0.8672510360747575
1667916001716201700,5.96320166015625,0.21062018798887727,-0.07419365571886301,0.9307543709531426
1667916001726276600,5.973276611328125,0.11393909839093684,-0.1476486218996346,0.8860140426032245
1667916001736351700,5.983351806640625,-0.010863923841714859,-0.18612346011400221,0.7157984918475151
1667916001746426600,5.993426513671875,-0.08531272336542606,-0.28919805014133454,0.5371611497052013
1667916001756500700,6.003500732421875,-0.04330196610987186,-0.41526977713555097,0.4103966181412339
1667916001766575600,6.01357568359375,0.09155950880050659,-0.4606400739520788,0.4084203496322035
1667916001776650800,6.023650634765625,0.3094663466662168,-0.49894247820898885,0.428585770304501
1667916001786725600,6.0337255859375,0.5042302093535661,-0.5818471175193787,0.4792591419652104
1667916001796800500,6.043800537109375,0.3392746249526739,-0.5813716089621186,0.5113423794463277
1667916001806875000,6.053875,-0.0451519778907299,-0.5697348010517657,0.5498517044521868
1667916001816949500,6.063949462890625,-0.3081944270342588,-0.7014853043347596,0.5628982330299913
1667916001827024600,6.074024658203125,-0.46119244713783264,-0.7435835937432944,0.5876924825467169
1667916001837099800,6.084099853515625,-0.36113106745183465,-0.6502757799707353,0.6211509539037943
1667916001847174700,6.094174560546875,-0.25565467697978017,-0.5160846055373549,0.6037583589456975
1667916001857248800,6.104248779296875,-0.38914252544939515,-0.42948330366611476,0.5386616173960268
1667916001867323600,6.11432373046875,-0.4816244097918272,-0.437882883220911,0.38050665292069313
1667916001877398800,6.124398681640625,-0.41408232091665265,-0.5086892345890403,0.19423677007332443
1667916001887473700,6.1344736328125,-0.234970200869441,-0.6115259242072701,0.17045695829614996
1667916001897548800,6.144548828125,-0.07781155395507812,-0.6524696367532015,0.3662095397599041
1667916001907622700,6.15462255859375,-0.016518588602542877,-0.6809361450418829,0.6190802851095796
1667916001917697800,6.16469775390625,-0.18502105183005332,-0.6855261031806469,0.7260162267401814
1667916001927772700,6.174772705078125,-0.4318699065417051,-0.7619891651362181,0.7570784506104886
1667916001937847600,6.18484765625,-0.5294318706274033,-0.7889587128654122,0.7461353240527212
1667916001947921700,6.194921630859375,-0.534316720059514,-0.6924927273228764,0.6259374575279653
1667916001957996500,6.20499658203125,-0.398538714826107,-0.6442877916023135,0.526200049099326
1667916001968071700,6.21507177734375,-0.3595136953830719,-0.6370037720739841,0.36677521081864833
1667916001978146800,6.225146728515625,-0.30706454622149465,-0.6633829526945948,0.227552179697901
1667916001988221700,6.2352216796875,-0.27873686188161373,-0.6452449461966753,0.20485081080719827
1667916001998295800,6.2452958984375,-0.26925007161200043,-0.6501847406864166,0.22138328180462122
1667916002008370700,6.25537060546875,-0.24968787752985952,-0.675725424656272,0.26307430558651684
1667916002018445800,6.26544580078125,-0.29906711772680283,-0.6878612681299447,0.3004565262585878
1667916002028520700,6.275520751953125,-0.32411797235310075,-0.7307026309907436,0.3424075161509216
1667916002038595600,6.285595703125,-0.46808396021723747,-0.7130015546053647,0.381766735984385
1667916002048669700,6.295669677734375,-0.729109224319458,-0.6643544280752539,0.4134367164894938
1667916002058744600,6.30574462890625,-0.9300508988589048,-0.6591308482080698,0.3761006730467081
1667916002068819700,6.31581982421875,-0.846681126254797,-0.6572215074554085,0.3202370392665267
1667916002078894600,6.32589453125,-0.7498422157466411,-0.5127130832776426,0.30922201651632786
1667916002088968700,6.33596875,-0.6388531993329525,-0.3424231521114707,0.30205694719254966
1667916002099043600,6.346043701171875,-0.31153906128704545,-0.17679478301554918,0.30532705490440126
1667916002109118700,6.35611865234375,-0.17709376596212387,0.004679682248830795,0.1144201599061489
1667916002119193900,6.36619384765625,-0.22080314382910726,0.06415127739310264,-0.03995762411803007
1667916002129268700,6.376268798828125,-0.36864275825619697,0.02452186231613159,-0.05294526211544871
1667916002139342800,6.3863427734375,-0.45846799061000343,0.06763122846335172,0.04955532741621137
1667916002149417700,6.396417724609375,-0.32844986407756804,0.1280994334295392,0.19213950553312897
1667916002159492600,6.40649267578125,-0.49472822151482104,0.2555178988575935,0.2912332092307508
1667916002169567500,6.4165673828125,-0.6884364376693963,0.33563539166748524,0.31522286436632274
1667916002179641600,6.4266416015625,-0.8029793471723794,0.4516270386740565,0.3212856715366244
1667916002189716500,6.436716552734375,-0.7961234899282454,0.5063260125890374,0.0012675357177853582
1667916002199791600,6.44679150390625,-0.5039461317151784,0.5814116487115621,-0.1290114337079227
1667916002209866800,6.45686669921875,-0.15455051024258135,0.6235650293081998,-0.3193494427770376
1667916002219941600,6.466941650390625,0.0917985782533884,0.5938900220125913,-0.42001960201114413
1667916002230015700,6.477015625,0.1893921065211296,0.543278025150299,-0.3703210667319596
1667916002240090600,6.487090576171875,0.1693710627555847,0.4793967968702316,-0.27260113560557364
1667916002250165800,6.497165771484375,0.13568039007782937,0.3830710965812206,-0.13468261121213435
1667916002260241000,6.507240966796875,0.12490472904145716,0.34004590158611536,0.11584157101139425
1667916002270314800,6.517314697265625,0.12675590986609458,0.3190554282665253,0.3174963622562587
1667916002280390000,6.527389892578125,0.07401800689101219,0.35626287689357994,0.4571778046689927
1667916002290464500,6.537464599609375,-0.04574409856498241,0.32270079903155563,0.2723592896737158
1667916002300539600,6.54753955078125,-0.16562018578946588,0.36495062573999165,0.2752086877554655
1667916002310614500,6.557614501953125,-0.3315180194765329,0.4138496812045574,0.1586911171786487
1667916002320688600,6.567688720703125,-0.2220429147571325,0.40634763501137494,0.09966039766967295
1667916002330763500,6.577763427734375,-0.0050040918976068495,0.4146823326364159,0.06994111284092068
1667916002340838700,6.587838623046875,0.09103402362167835,0.44594402460157867,0.051584641286730765
1667916002350910000,6.597909912109375,0.014613631764054297,0.496790999263525,0.08396408523544668
1667916002360985000,6.607985107421875,-0.0779343035519123,0.43859746123105287,0.11821472988352179
1667916002371059000,6.618058837890625,-0.11600070709586142,0.3331035351023078,0.13364917651116848
1667916002381134000,6.628134033203125,-0.30461423045992847,0.2735585824608803,0.12416487045958638
1667916002391209000,6.638208984375,-0.39208442412018774,0.20206395656764506,0.19312442491725085
1667916002401284000,6.6482841796875,-0.34531156702935695,0.17348142068386077,0.18776012140512466
1667916002411358000,6.65835791015625,-0.14834054968655108,0.12558131312876938,0.07264584175497293
1667916002421433000,6.66843310546875,0.21031799017190933,0.019401742823421955,-0.059442369049787516
1667916002431507700,6.6785078125,0.45831016969978805,-0.08440846800208092,-0.19137918868511913
1667916002441582800,6.688582763671875,0.6041062956005334,-0.25022856027781964,-0.24931919034793973
1667916002451658000,6.698657958984375,0.6144979257553815,-0.39934740086048837,-0.13839140260219573
1667916002461731800,6.70873193359375,0.5244599274337292,-0.5097410817295313,-0.0068744158141314975
1667916002471807000,6.718806884765625,0.32082185341715813,-0.6139414609163999,0.0866179607450962
1667916002481881900,6.7288818359375,0.08622516203522682,-0.677112787361443,0.24242490078955886
1667916002491957000,6.73895703125,0.152788761267066,-0.72909607257694,0.3653481006249785
1667916002502030800,6.74903076171875,0.3429424998104572,-0.6571317833453416,0.27976196714565155
1667916002512106000,6.75910595703125,0.40911505389809605,-0.5310390135630965,0.09473507009670137
1667916002522181000,6.76918115234375,0.45896015804111956,-0.45067485251575706,-0.08347425589188932
1667916002532256000,6.779256103515625,0.44967385877966876,-0.4000555491298437,-0.2393514846935868
1667916002542331000,6.789330810546875,0.35512276694774625,-0.39684681621640916,-0.3726861884281039
1667916002552405000,6.799405029296875,0.25238544605076313,-0.46856735982000824,-0.44237800268307326
1667916002562479900,6.80947998046875,0.20288871695399283,-0.534107753483951,-0.3522188621997833
1667916002572554800,6.8195546875,0.1361579444617033,-0.5678706146150827,-0.22989099790900944
1667916002582630000,6.8296298828125,-0.12285247268676758,-0.560318591800332,-0.11559358759969472
1667916002592703700,6.839703857421875,-0.5303583378225565,-0.5405573680147528,0.04477364609763026
1667916002602779000,6.84977880859375,-0.6697673930346966,-0.4968795543298125,0.09657879826724529
1667916002612854000,6.85985400390625,-0.6121387954086065,-0.3593833470016718,-0.00838905816078186
1667916002622929000,6.869928955078125,-0.47223114302456376,-0.2760372475340962,-0.24428777205199
1667916002633004000,6.880004150390625,-0.34079262830018997,-0.28192893592119217,-0.5426914574339986
1667916002643078000,6.890077880859375,-0.22031623709499834,-0.3217521200045943,-0.8033312293499708
1667916002653153000,6.900153076171875,-0.18443243828713893,-0.3597463350951671,-0.9029889966711402
1667916002663228200,6.910228271484375,-0.11150748732984066,-0.3667299103721976,-0.8278606904506682
1667916002673302800,6.920302734375,-0.038410686936974525,-0.2793307361215353,-0.7284571901515126
1667916002683377200,6.930377197265625,-0.2603811209797859,-0.16064911937862633,-0.6390249026380479
1667916002693451800,6.94045166015625,-0.5382569821178913,-0.23038696473240852,-0.4878792324028909
1667916002703527000,6.95052685546875,-0.86685473023355,-0.3361462637990713,-0.34824323656708
1667916002713601800,6.960601806640625,-1.084329021900892,-0.4113964428335428,-0.21036942809820175
1667916002723677000,6.970677001953125,-1.1938228313207626,-0.33790275207757947,-0.056582595704495905
1667916002733750800,6.980750732421875,-1.3542191449820995,-0.24432255110442638,-0.003259586317837238
1667916002743826000,6.990825927734375,-1.3147259235054254,-0.23327450286746024,-0.0202189044252038
1667916002753901000,7.000901123046875,-1.155975623485446,-0.18919336907863615,-0.11243117804601788
1667916002763976000,7.010975830078125,-0.7159405306667089,-0.13591858274787663,-0.15874328575730323
1667916002774050000,7.021050048828125,-0.05912614270746708,0.01838555151820183,-0.1835579935401678
1667916002784125000,7.031125,0.5141097983330488,0.07534253349304199,-0.3319081878378987
1667916002794200000,7.041199951171875,0.5588724846452474,-0.07665127800405025,-0.46020226705670353
1667916002804275000,7.05127490234375,0.06050444532334804,-0.2116512846022844,-0.3671241703867912
1667916002814349800,7.061349853515625,-0.5184837756335735,-0.21637392921000717,-0.044713148082047696
1667916002824424000,7.071423828125,-0.6756558665513992,-0.16111556784659622,0.42561683749631046
1667916002834498800,7.081498779296875,-0.4899947632521391,-0.08046879046559334,0.755112118973583
1667916002844574000,7.091573974609375,-0.22813538641333578,0.16061287902146576,0.7403261993825435
1667916002854648800,7.10164892578125,-0.2279997773349285,0.4113566953450441,0.4647580306649208
1667916002864723000,7.111722900390625,-0.2919429649353027,0.44397769296467304,0.15433562538288534
1667916002874797800,7.1217978515625,-0.6676140143930912,0.3814662917330861,-0.0961124228645116
1667916002884873000,7.131873046875,-0.9550029692858457,0.18009440908282995,-0.17784947970025242
1667916002894948000,7.141947998046875,-0.8218886303037405,0.08270254086703062,0.14324753739647567
1667916002905023000,7.15202294921875,-0.7330810505598783,0.2773252415180206,0.4093327883020043
1667916002915097000,7.16209716796875,-0.5709750103712081,0.46682782267630096,0.5562494426652789
1667916002925172000,7.172171875,-0.39333822357356546,0.5090910933881998,0.6059962010003626
1667916002935246800,7.182246826171875,-0.25195932959318157,0.5682394479274749,0.5251233597785234
1667916002945322000,7.192322021484375,-0.07821078240573406,0.6184729668661951,0.406068671939522
1667916002955395800,7.202395751953125,0.17768237950503826,0.6629670653700828,0.3018079408675432
1667916002965471000,7.212470947265625,0.320671046769619,0.6804694043129682,0.19964023655205965
1667916002975545900,7.2225458984375,0.383698873090744,0.6560609392434358,0.19061419566199184
1667916002985621000,7.23262109375,0.3101607586711645,0.6274208279535174,0.2788165029890835
1667916002995695900,7.24269580078125,0.16576690078377723,0.5945692364484071,0.4316454501360655
1667916003005770000,7.25277001953125,0.08113339185416699,0.5245122421428561,0.5896105180624872
1667916003015844900,7.262844970703125,0.038976504126191136,0.4437374544680118,0.7915699913423508
1667916003025920000,7.272919921875,-0.0008580781340599059,0.39847091028690335,0.9236820944793522
1667916003035995000,7.282994873046875,0.19408640181720255,0.33907442620545625,0.8773840152934194
1667916003046069000,7.293069091796875,0.2616676536589861,0.3077583737045526,0.719345955196023
1667916003056144000,7.303143798828125,0.14539280579686165,0.1803621201083064,0.5498939361587166
1667916003066218800,7.31321875,0.10132628505527973,-0.027654899644851683,0.4872961718179285
1667916003076294000,7.3232939453125,-0.02135609176158905,-0.07546528308987617,0.5680141147390008
1667916003086369000,7.333369140625,-0.17533435507416725,-0.025262451550364492,0.6898258462011814
1667916003096443000,7.34344287109375,-0.275575182980299,0.09628478375673294,0.8030788620240986
1667916003106518000,7.35351806640625,-0.1592541578888893,0.1418415430560708,0.7788798019215464
1667916003116593000,7.363593017578125,-0.038870705664157866,0.17872078264206648,0.6204815302096307
1667916003126668000,7.37366796875,0.10474632263183593,0.2071738469272852,0.40445290730595584
1667916003136742000,7.383741943359375,0.3180734314918518,0.130500064830482,0.16624445516765116
1667916003146817000,7.393817138671875,0.35471944684386253,-0.029640228243172168,0.019991087018698454
1667916003156892000,7.403891845703125,0.1955798552453518,-0.1945788615092635,0.006776654528081416
1667916003166967000,7.413967041015625,0.13176760054826736,-0.4048252477496862,0.003505377772450447
1667916003177041200,7.424041259765625,0.21472060904502868,-0.4983592714935541,0.170519356007874
1667916003187116000,7.434115966796875,0.15356675990223884,-0.4677884844020009,0.3789673145242035
1667916003197191000,7.44419091796875,0.04770984567999839,-0.503506863515079,0.4845660162016749
1667916003207265800,7.454265869140625,0.15884791517555713,-0.6200488378807902,0.5185150475546717
1667916003217341000,7.4643408203125,0.1754360618829727,-0.6821727010995149,0.5422349458381533
1667916003227414800,7.474414794921875,0.014879589223861693,-0.7728998507291078,0.5076392871446908
1667916003237490000,7.484489990234375,-0.02734568756520748,-0.8691036782041192,0.6408557713270187
1667916003247565000,7.49456494140625,0.10633271504044532,-0.8710238326117395,0.7934823277696966
1667916003257640000,7.504639892578125,0.20781682100594043,-0.7054115378677844,0.7919801065132022
1667916003267714000,7.514714111328125,0.13567922103404997,-0.592087064243853,0.6864389802418649
1667916003277789000,7.524788818359375,0.002227612921595573,-0.574043165770173,0.6146319273985922
1667916003287864000,7.534864013671875,-0.23764906468987462,-0.5247837525606155,0.5629337427347898
1667916003297939000,7.54493896484375,-0.3110544926404953,-0.49376668300628657,0.5048978794820607
1667916003308013000,7.555012939453125,-0.3266290783911943,-0.4017994701877236,0.512255402638018
1667916003318088000,7.565087890625,-0.31318273684084413,-0.3609431436643004,0.45884266914129257
1667916003328162800,7.575162841796875,-0.27623335462808607,-0.3878589153796434,0.3306815686523914
1667916003338238000,7.585238037109375,-0.4532096316903829,-0.35282384235560893,0.2894309821143746
1667916003348317200,7.595317138671875,-0.6517495057851076,-0.371744231402874,0.28972090497165914
1667916003358391000,7.60539111328125,-0.887054637697339,-0.386707114996016,0.3736602941572666
1667916003368466200,7.615466064453125,-1.2047481299608944,-0.3832093360081315,0.4888743809200823
1667916003378541000,7.625541015625,-1.2534615997254848,-0.3485451421231031,0.606917553628981
1667916003388616200,7.6356162109375,-1.2088263391852379,-0.1402794083058834,0.5886791554965078
1667916003398690300,7.645690185546875,-1.0314186849683522,0.018843232157826423,0.4663640045568347
1667916003408765200,7.65576513671875,-0.6558113483965397,0.01256751288920641,0.2192310722067952
1667916003418840000,7.665840087890625,-0.13247136490345002,-0.05330342790335416,-0.07420768424421548
1667916003428915000,7.6759150390625,0.0964870283305645,0.05541004479378461,-0.22581819551214574
1667916003438989000,7.685989013671875,-0.061838324275612824,0.15993308006376028,-0.06519274927005171
1667916003449064000,7.69606396484375,-0.29555180308222767,0.22012042226195333,0.2509602355532348
1667916003459139000,7.70613916015625,-0.5373708469331264,0.3246592396229505,0.6311382410414517
1667916003469214200,7.716214111328125,-0.8068927212238312,0.4214908436074853,0.8584322081945837
1667916003479289000,7.7262890625,-0.993893548694253,0.47297757747769353,0.8187593923673033
1667916003489363200,7.73636328125,-1.1252426315695048,0.3968342489957809,0.636920185443759
1667916003499438000,7.74643798828125,-1.0881757604569195,0.3450304120004177,0.46137423344552514
1667916003509513200,7.75651318359375,-1.0797270810633897,0.4540639104321599,0.3502111756391823
1667916003519588000,7.766588134765625,-0.9501806636959313,0.6117705466181039,0.25104046118259427
1667916003529662200,7.776662109375,-0.7547597984045743,0.7389552032902836,0.19528394103869795
1667916003539737000,7.786737060546875,-0.531194788646698,0.7776993599653244,0.05700125950798392
1667916003549812000,7.79681201171875,-0.27313246600329877,0.7178305821970105,-0.1393780755519867
1667916003559887000,7.80688720703125,-0.10586568205058575,0.6731620039090513,-0.23638752032145857
1667916003569962000,7.8169619140625,0.029209143349528312,0.671525342617929,-0.24572028907313942
1667916003580036000,7.8270361328125,0.20210311953425406,0.7583873412519693,-0.14574848736673593
1667916003590111000,7.837111083984375,0.22040391537845133,0.7995566792473197,-0.14538330731615423
1667916003600186000,7.84718603515625,0.04924421564042568,0.729502607551217,-0.1721618625178933
1667916003610261200,7.85726123046875,0.04074643640816211,0.6003530805468559,-0.1355538410887122
1667916003620335000,7.867335205078125,0.018448679882287978,0.590783580429852,-0.11256795616820454
1667916003630410200,7.87741015625,-0.12106617379188536,0.5894073236405849,-0.08117430838644504
1667916003640485000,7.887485107421875,-0.1768658024251461,0.530433741146326,0.0022398878812789915
1667916003650560300,7.897560302734375,-0.05243102898299694,0.47461833042204377,0.04847732292115688
1667916003660634000,7.907634033203125,0.08377601531744003,0.4830766544267535,0.011565496239811181
1667916003670709200,7.917709228515625,0.11381693331599235,0.4723670443639159,-0.0908804404951632
1667916003680784000,7.927783935546875,0.14386778818666934,0.4214060879334807,-0.21186215087398885
1667916003690859000,7.93785888671875,0.20922727232575417,0.3635854748666286,-0.2868462263181805
1667916003700934100,7.94793408203125,0.16482465149760245,0.30286475644409655,-0.34467589947432276
1667916003711008000,7.958008056640625,-0.023652093744277954,0.2756117155984044,-0.36840558849945665
1667916003721083100,7.968083251953125,0.035388124245405196,0.2006996824771166,-0.2932917491957545
1667916003731158000,7.978157958984375,0.5100649068564176,0.14182225383371114,-0.20959946663901208
1667916003741233200,7.988233154296875,0.8501607850641012,0.2063078777477145,-0.2780266677856445
1667916003751307000,7.99830712890625,0.8704629838585853,0.22923136495649812,-0.4094892940379679
1667916003761382100,8.008382080078125,0.8064069835335016,0.11746610347330569,-0.4235070057354867
1667916003771457300,8.018457275390626,0.9602595746397972,-0.06079904435575008,-0.42355785913988947
1667916003781532200,8.0285322265625,0.9996452440887689,-0.16861118429899213,-0.41335795216485854
1667916003791606300,8.038606201171875,0.9894693025112151,-0.2020823690071702,-0.2721756036698818
1667916003801681200,8.04868115234375,0.7385925074577331,-0.24185996038317678,-0.18459785798192024
1667916003811756000,8.058756103515625,0.48185237332880493,-0.3780716808587313,-0.11042246857210992
1667916003821831000,8.068830810546874,0.2704968568027019,-0.5172586177527905,-0.014931027150154113
1667916003831906000,8.078906005859375,0.02346095508635044,-0.49947307795435186,0.030793051540106534
1667916003841980200,8.088980224609376,-0.10105448237657547,-0.419423097422719,0.04711100300401449
1667916003852055000,8.099054931640625,-0.04654021737873554,-0.36177228796482086,0.0172167999997735
1667916003862130200,8.109130126953126,-0.07824877632856368,-0.2924894929021597,-0.17385317660570143
1667916003872205000,8.119205078125,-0.21218904474079608,-0.25431027663350103,-0.4280015406757593
1667916003882279200,8.129279052734375,-0.11602934866845607,-0.3820610427558422,-0.599449263574928
1667916003892354000,8.13935400390625,0.25867490158379075,-0.4828483986288309,-0.6035979076869785
1667916003902429200,8.14942919921875,0.5648305162668228,-0.5212547016516328,-0.6354086118370295
1667916003912504300,8.15950439453125,0.5074181917399168,-0.5982172375619411,-0.6169432730808854
1667916003922578200,8.169578125,0.25171207683384417,-0.754346249167621,-0.4226528731241822
1667916003932653300,8.1796533203125,-0.06997253089249134,-0.8824924443483352,-0.21328911493718622
1667916003942728000,8.18972802734375,-0.42080490716993807,-0.8864733306780457,0.026442308984696863
1667916003952803000,8.199802978515624,-0.5746259340941906,-0.8254980529725551,0.20343027648478745
1667916003962877000,8.209876953125,-0.47072483011484145,-0.8332192948743701,0.1760470333881676
1667916003972952000,8.2199521484375,-0.15291618703901766,-0.9226493904307485,-0.10164368044137954
1667916003983027200,8.230027099609375,0.059874330726265905,-0.9438444464117288,-0.37682957184314725
1667916003993102000,8.24010205078125,0.1247813949227333,-0.9266343684136867,-0.5091147665247321
1667916004003177200,8.25017724609375,0.16735563127994538,-0.9641682725161314,-0.5781213749945163
1667916004013251000,8.2602509765625,0.07705635167360306,-1.0001163687318564,-0.5393330869168043
1667916004023326200,8.270326171875,-0.20358137539327142,-1.0681620232149958,-0.43565687773451206
1667916004033401000,8.280401123046875,-0.4625128820866346,-1.1640274125158787,-0.27963848689645526
1667916004043476200,8.290476318359374,-0.5793213984340428,-1.1765212756469845,-0.041107086414098735
1667916004053550000,8.300550048828125,-0.8607172503918409,-1.0432426860138773,0.17932400923222303
1667916004063625200,8.310625244140626,-1.1788432888537645,-0.8873387153357267,0.22137159136682746
1667916004073700000,8.3207001953125,-1.2856833688944578,-0.781812348242104,0.0643906391069293
1667916004083775000,8.33077490234375,-1.1940297520697116,-0.6204395907640456,-0.20694208399802444
1667916004093849000,8.34084912109375,-0.9399427627980709,-0.46062779899239537,-0.47209699525088067
1667916004103924000,8.350924072265625,-0.6650204907685517,-0.41659021208435293,-0.5934093988887965
1667916004113999000,8.3609990234375,-0.5671200885087251,-0.4442582634717226,-0.745047382685542
1667916004124074200,8.37107421875,-0.5060480724304914,-0.4106318882018328,-0.7308522685945034
1667916004134149000,8.381149169921875,-0.35880817746222016,-0.3649272448644042,-0.5580870333559811
1667916004144223200,8.39122314453125,-0.3834019359707832,-0.27209347834438086,-0.3923952436350286
1667916004154298000,8.401298095703124,-0.3227092745989561,-0.24388240612149237,-0.14115180722624063
1667916004164373200,8.411373291015625,-0.1364186412245035,-0.25837854898571966,0.010116393410041927
1667916004174448000,8.4214482421875,-0.26155191832482816,-0.17973317455500362,0.08389270049966871
1667916004184522200,8.431522216796875,-0.5250917955964803,-0.09140811763107776,0.31570494879484173
1667916004194597000,8.44159716796875,-0.8450105626940727,-0.022378420546650884,0.5646867238819598
1667916004204672000,8.451672119140625,-1.177106089797616,0.09752660051137209,0.8342657351873815
1667916004214747100,8.4617470703125,-1.213706512442231,0.31780718177109957,0.9695205202642828
1667916004224821000,8.471821044921874,-1.0777286007225513,0.635571693444252,0.8570390002705156
1667916004234896100,8.481896240234375,-0.8033546102255582,0.8624339911818504,0.6615513533532619
1667916004244971000,8.491970947265624,-0.6231751532077789,1.0279062929332257,0.48426381838470695
1667916004255046100,8.502046142578125,-0.5385200169682502,1.0013985174968838,0.23387349167391658
1667916004265120000,8.5121201171875,-0.16150807429552078,0.9261123903661965,0.09006795506849885
1667916004275195100,8.522195068359375,0.14974281769990921,0.8766130309209227,0.03197802354097366
1667916004285270300,8.532270263671874,0.16993395733535288,0.8629229437425732,0.09144304281398653
1667916004295345200,8.54234521484375,0.18373159654140472,0.8259794067487121,0.3400925172068178
1667916004305420300,8.552420166015626,0.23329963730871675,0.791103908200562,0.5247463431596756
1667916004315494100,8.562494140625,0.13950140967071056,0.8129512906104326,0.6541510870341212
1667916004325569300,8.5725693359375,0.04840893386006355,0.7786760960429906,0.8240698468003421
1667916004335644000,8.582643798828125,0.017406477352976797,0.6552098753720521,0.8622286048028618
1667916004345718800,8.59271875,-0.0562888734549284,0.4921384972825646,0.7835699324991554
1667916004355793000,8.60279296875,-0.09540274022519588,0.262535084143281,0.7055597141668201
1667916004365867800,8.61286767578125,-0.07610065838396549,0.0776622086122632,0.7559846640244126
1667916004375943000,8.62294287109375,-0.0925607947975397,0.08276771505773067,0.8801223542161285
1667916004386018000,8.63301806640625,-0.15852584361433983,0.1548904097214341,0.9526806638181209
1667916004396092000,8.643091796875,-0.33753099615573884,0.21177286515533922,1.120079549717903
1667916004406167000,8.6531669921875,-0.5084077872991561,0.2553171155884862,1.1479999684311448
1667916004416242000,8.663241943359376,-0.5206114353120327,0.32181057219356296,1.075242921386659
1667916004426317000,8.673317138671875,-0.4361626352995634,0.438735116136074,0.8550506029322743
1667916004436391000,8.683390869140625,-0.14111469008624553,0.5469169661745429,0.7317889649227262
1667916004446466000,8.693466064453125,0.23961890345811843,0.5230068060159683,0.573581539607793
1667916004456541000,8.703541015625,0.4920061030745506,0.4301891138479113,0.3417319549769163
1667916004466615800,8.71361572265625,0.6248112299770117,0.31755408379286526,0.15164982036501168
1667916004476691000,8.72369091796875,0.6848404590040444,0.21610417235791682,0.10017273110598325
1667916004486764800,8.733764892578124,0.6385562622129917,0.08326689675152302,0.21603724460154772
1667916004496840000,8.74383984375,0.49056174948513503,-0.05619271960407495,0.38718744585886594
1667916004506914800,8.753914794921876,0.2618061853468418,-0.16299363667815922,0.590517769100517
1667916004516990000,8.763989990234375,0.0031926585614681243,-0.34044133064448834,0.6969552596896886
1667916004527063800,8.774063720703126,-0.05517068307995796,-0.5803168392121791,0.732264765740931
1667916004537139000,8.784138916015625,0.033114334094524384,-0.7557374112650752,0.70414224858433
1667916004547214000,8.794214111328126,0.12138181561231612,-0.8589490716755389,0.6565767798110842
1667916004557289000,8.8042890625,0.18958616778850554,-0.8735720557898282,0.5931709139578044
1667916004567363000,8.814363037109375,0.2784966233849525,-0.9159174518272281,0.48779783772975205
1667916004577438000,8.82443798828125,0.4387228411763906,-0.9449678974837065,0.4691247014418244
1667916004587513000,8.83451318359375,0.504109213322401,-0.8578992703616619,0.48820291139930483
1667916004597587700,8.844587646484374,0.34572131687402724,-0.7626146035581827,0.5441504240706563
1667916004607662000,8.854662109375,0.0458446363300085,-0.7506418416917323,0.6293422975353896
1667916004617737000,8.864737060546876,-0.25071546701192854,-0.6751438253760338,0.7787821867659688
1667916004627811800,8.874811767578125,-0.40278000565767286,-0.5810308327004313,0.8181969361789524
1667916004637887000,8.884886962890626,-0.43855683695971964,-0.4929366619229316,0.7429800748921931
1667916004647961900,8.8949619140625,-0.4323006991744041,-0.41750966501682996,0.6042503802463411
1667916004658036000,8.905035888671875,-0.29860300734639167,-0.4256266282379627,0.40045945375561715
1667916004668110800,8.91511083984375,-0.2378080546438694,-0.45779345234930513,0.23375804860070346
1667916004678186000,8.92518603515625,-0.3315811478406191,-0.5603998403429985,0.18546938011944292
1667916004688261000,8.93526123046875,-0.4690945985645055,-0.68911974375844,0.3081972035132348
1667916004698335000,8.9453349609375,-0.6666273414433002,-0.7205392566338181,0.5117934842146933
1667916004708410000,8.95541015625,-0.8582131586164236,-0.7180430559039116,0.6968921313256025
1667916004718485000,8.965485107421875,-1.0054337643623352,-0.7356009244263172,0.8554302498996257
1667916004728559900,8.975559814453124,-0.9919453372359275,-0.778410723105073,0.9775029703855513
1667916004738634000,8.985634033203125,-0.9983329924464225,-0.6237243115231395,0.9300250337652861
1667916004748708900,8.995708984375,-0.9676181207090616,-0.4824102994725108,0.7021925758212805
1667916004758784000,9.005783935546875,-0.8349000875681638,-0.4722057163223624,0.42212051981315013
1667916004768859000,9.01585888671875,-0.6925999870896339,-0.4623384023025632,0.19512071330100297
1667916004778933000,9.02593310546875,-0.5254144516795873,-0.5094815540105104,-0.028931787712872026
1667916004789008000,9.0360078125,-0.4100321687430143,-0.5339180761307477,-0.08381751637160778
1667916004799083000,9.0460830078125,-0.4972083478927612,-0.3825178466126323,0.11358297842964529
1667916004809158000,9.056157958984375,-0.7906926970511674,-0.2064110458612442,0.38357349314540623
1667916004819233000,9.06623291015625,-1.0212468350440262,-0.1309907709568739,0.6149811792276799
1667916004829307000,9.076306884765625,-1.1178519367963076,-0.045748190218210215,0.7464210091263055
1667916004839382000,9.086382080078126,-1.199698445355892,0.1256838967204094,0.6624710985466837
1667916004849457200,9.09645703125,-1.2574620675384998,0.2835752418234944,0.45653030054569244
1667916004859531800,9.10653173828125,-1.1112526846617459,0.4548030383616686,0.2475670859836042
1667916004869606100,9.116606201171875,-0.9319856663137673,0.5982344809576868,-0.06398001247942448
1667916004879680800,9.1266806640625,-0.6247691444009542,0.6351473305523395,-0.3538794888883829
1667916004889756000,9.136755859375,-0.26739830626547334,0.6490209576040507,-0.5639774065688252
1667916004899831000,9.1468310546875,-0.09869067585468291,0.6397521939992904,-0.7419190215319394
1667916004909905000,9.15690478515625,-0.23072014220952985,0.689834029507637,-0.6637476943537592
1667916004919980000,9.16697998046875,-0.22402269039750097,0.6427215651988982,-0.43493104767799373
1667916004930055000,9.177054931640624,0.04649579371511936,0.6362140830010176,-0.18479425733685492
1667916004940130000,9.187130126953125,0.26385551909208294,0.7418120540261268,0.008785948523879051
1667916004950204000,9.197203857421876,0.2841518726676702,0.8364715746685862,0.1681017734721303
1667916004960279000,9.207279052734375,0.016539046868681906,0.8941258912578225,0.202294404322654
1667916004970354000,9.21735400390625,-0.20920213788449762,0.8992419190973043,0.16531828023344278
1667916004980429000,9.227428955078125,-0.1449497382044792,0.9379799382925033,0.098830376586318
1667916004990504000,9.23750390625,-0.016017653343081473,1.1058692380577324,0.09858575417548418
1667916005000578000,9.247578125,-0.036869887235760686,1.2429010427445173,0.033280338311195375
1667916005010653000,9.25765283203125,-0.1547363882035017,1.2237708103388547,-0.016033143173158168
1667916005020727800,9.267727783203124,-0.20282325050234792,1.1604834562987087,-0.046234512430429454
1667916005030803000,9.277802978515625,-0.15876023689210414,1.1180740551143884,-0.14370996727645396
1667916005040876800,9.287876708984374,-0.06634440352320671,1.1127695189654827,-0.1988886875323951
1667916005050952000,9.297951904296875,-0.07758768207132816,1.076630576352775,-0.17377689649909733
1667916005061027000,9.308027099609374,-0.12946283073723316,0.93141195807904,-0.18487696718424557
1667916005071102000,9.31810205078125,-0.05702361747026443,0.7422296949163079,-0.13978344148248434
1667916005081176000,9.328176025390626,0.039161213043332095,0.5993319208055734,-0.10017039301842451
1667916005091251000,9.3382509765625,0.18082944535911083,0.4928121587604284,-0.059329556325078005
1667916005101326000,9.348326171875,0.38370530283153054,0.3795192493185401,0.011997165655344724
1667916005111401000,9.35840087890625,0.5227466937750578,0.30914427510499953,0.08480857323557138
1667916005121475000,9.36847509765625,0.7733832503318786,0.25481413450241086,0.19067381689473986
1667916005131550000,9.378550048828124,0.8561112179011106,0.14787234765291213,0.11611176625490188
1667916005141624800,9.388624755859375,0.8341285186737776,-0.024647534522414204,-0.0073345806717872615
1667916005151700000,9.398699951171874,0.6584808598667383,-0.14846154571771622,0.007058686339855193
1667916005161774800,9.40877490234375,0.43268180744647977,-0.18349486517608166,0.04480477188825607
1667916005171849000,9.418848876953126,0.44256607260107994,-0.1717541584998369,0.15092998165786264
1667916005181923800,9.428923828125,0.4798486322909593,-0.21094284407198427,0.16411124253124
1667916005191999000,9.4389990234375,0.4995926126807928,-0.27027356944084163,0.10908142922669649
1667916005202074000,9.44907421875,0.500166613176465,-0.31910832749754187,0.05065232887268066
1667916005212148000,9.45914794921875,0.3802344118505716,-0.3492904075324535,-0.013378683141618965
1667916005222223000,9.46922314453125,0.27770284265875816,-0.4548848714262247,-0.06685322982817887
1667916005232298000,9.479298095703125,0.1400005913645029,-0.47993660283535716,-0.07412965057194232
1667916005242372900,9.489372802734374,0.04827566286921501,-0.49336014803200956,-0.08203297104239464
1667916005252447000,9.499447021484375,0.081045713570714,-0.5963780394360423,-0.079607789722085
1667916005262521900,9.50952197265625,0.07581365813612938,-0.605425561505556,-0.07991466371417046
1667916005272596700,9.5195966796875,0.04042085771560669,-0.6072548227593302,-0.14511340433359146
1667916005282671900,9.529671875,0.04281973555088043,-0.6979904479563236,-0.17131766677871346
1667916005292745700,9.539745849609375,-0.135944009450078,-0.663936494924128,-0.037543840974569316
1667916005302820900,9.54982080078125,-0.38005087197721005,-0.6587400953248143,0.08418488837927579
1667916005312896000,9.55989599609375,-0.541444964504242,-0.6583753536656498,0.1564525444716215
1667916005322971000,9.569970947265626,-0.6439584135174751,-0.6444634404301643,0.055296209155768154
1667916005333045000,9.580044921875,-0.7280588384836911,-0.6382707232698798,-0.08999050591811537
1667916005343120000,9.590119873046875,-0.6510042403757572,-0.6208253752112388,-0.2435518589928746
1667916005353195300,9.6001953125,-0.5020587105333805,-0.5789145711988211,-0.37312048819214105
1667916005363270100,9.610270263671875,-0.5339227523058653,-0.5741971872881054,-0.5397143413193524
1667916005373345000,9.620344970703124,-0.6050678341090678,-0.6657701400920748,-0.5318764873005449
1667916005383419100,9.630419189453125,-0.7082908926963806,-0.709036158105731,-0.37585312802642584
1667916005393494000,9.640493896484376,-0.952115431150794,-0.6861036108076572,-0.264791630898416
1667916005403569200,9.650569091796875,-1.2585463556438683,-0.6754588826745748,-0.15669862818717956
1667916005413644000,9.66064404296875,-1.532611718583107,-0.6610200229555369,-0.08500409580767154
1667916005423718100,9.67071826171875,-1.682058183684945,-0.6526560992360114,-0.09052928896993398
1667916005433793000,9.68079296875,-1.480193549081683,-0.5612535345628857,-0.11349968406036495
1667916005443868200,9.6908681640625,-1.0646528460502624,-0.3893494461983442,-0.2315980940878391
1667916005453943000,9.700943115234375,-0.7358797413676976,-0.23947774142175912,-0.35413083330094813
1667916005464017200,9.71101708984375,-0.477051695048809,-0.24062018945515154,-0.48226036960780616
1667916005474092000,9.721092041015625,-0.3048112143367529,-0.3536269754320383,-0.6047295420654117
1667916005484167200,9.731167236328124,-0.26458091075718404,-0.38495471837073564,-0.5567464324019848
1667916005494242300,9.7412421875,-0.34463118354976174,-0.35638591875135894,-0.37411899771019813
1667916005504316200,9.751316162109376,-0.5142705418527126,-0.32884558539688585,-0.13903876059502362
1667916005514391300,9.761391357421875,-0.8030787158936261,-0.2698603124648332,0.11592340407595038
1667916005524466000,9.7714658203125,-1.2905559433668852,-0.18335399540066719,0.36244521879032254
1667916005534541000,9.781541015625,-1.6748358312159777,-0.03172492556273937,0.576219633026421
1667916005544615000,9.791614990234375,-1.7750930257350206,0.2912932688549161,0.647498278081417
1667916005554690000,9.80168994140625,-1.5568629472643136,0.7066969015032053,0.5177019776061177
1667916005564765200,9.81176513671875,-1.0898545073240995,1.1039642812192438,0.2743513402737677
1667916005574840000,9.821840087890624,-0.6047638827264309,1.4901242837265134,-0.024059943892806766
1667916005584915200,9.831915283203125,-0.2976005523055792,1.4617653274655342,-0.44115123736709355
1667916005594989000,9.841989013671874,-0.11717208896279334,1.1314286267280578,-0.7346268186971545
1667916005605064200,9.852064208984375,0.09749299050271511,0.8634069278672337,-0.7450893221311271
1667916005615139000,9.86213916015625,0.24220833542943,0.8631810101568699,-0.5113270357467233
1667916005625214200,9.872214111328125,0.32496377552747724,0.982302479621768,-0.053368309833109376
1667916005635288000,9.8822880859375,0.29387188717126844,1.1261945254668593,0.5954504031971096
1667916005645363200,9.89236328125,0.042572482791543007,1.1392229338660835,0.8895008618056773
1667916005655438000,9.90243798828125,-0.16222002195715904,0.9880845701545476,0.948377998188138
1667916005665513000,9.912512939453125,-0.13910568835139273,0.7848346186727285,0.8527110540688038
1667916005675587000,9.922587158203125,-0.08574059338867664,0.7483376564025879,0.7329594700068235
1667916005685662000,9.932661865234374,-0.035921792730689045,0.8027829478174447,0.6340268020898103
1667916005695737000,9.942737060546875,-0.1215612638324499,0.8299842584758996,0.712639443294704
1667916005705812200,9.952812255859374,-0.22930852184593675,0.8556623050898313,0.9416844918988645
1667916005715887000,9.96288720703125,-0.2540799750089645,0.8935825781613588,1.0832900342419742
1667916005725961200,9.972961181640626,-0.29019524448513984,0.9978624523252249,1.1047731133840977
1667916005736036000,9.9830361328125,-0.288536955884099,1.023625254613161,1.0586623734638094
1667916005746111200,9.993111328125,-0.23035540055036544,1.03147889072299,0.9673325817659497
1667916005756186000,10.00318603515625,-0.1254343058735132,1.0353934338182211,0.7814901305504143
1667916005766260200,10.01326025390625,0.08360065875053405,1.014606081855297,0.6876037862375378
1667916005776335000,10.023335205078125,0.2662450445771217,0.9106567548200487,0.4696868653692305
1667916005786410000,10.033409912109375,0.320995456418395,0.8584855458170175,0.44245150631070135
1667916005796485000,10.043485107421875,0.28960546189844605,0.7782242606222629,0.42024844233095643
1667916005806559000,10.05355908203125,0.24220073664486408,0.6919888694539665,0.4685257126353681
1667916005816634000,10.063634033203124,0.1504530117958784,0.5939554884642362,0.4531178617537021
1667916005826709000,10.073708984375,0.10140227290093898,0.4772369884878397,0.4367261144012213
1667916005836784000,10.0837841796875,0.07921791362166404,0.36316286554038524,0.4461658506587147
1667916005846858000,10.09385791015625,0.15339607951045037,0.21539836217612027,0.4273668960340321
1667916005856933000,10.10393310546875,0.24760814864635466,0.11114625280201434,0.4039087174266576
1667916005867008300,10.11400830078125,0.36126726105213164,0.02670826644450426,0.4341755531355738
1667916005877083100,10.124083251953126,0.39669863991737364,-0.03542085747122765,0.5257978980392217
1667916005887158300,10.134158203125,0.4055576536774635,-0.03771744397580623,0.6193012343838811
1667916005897232100,10.144232177734375,0.36603695967197414,-0.017477204501628874,0.6655813395217061
1667916005907307300,10.154307373046874,0.2423158874571323,-0.051314884434640405,0.6508592789471149
1667916005917382000,10.1643818359375,0.20068390038609504,-0.09845686709880828,0.7054398871794343
1667916005927457000,10.17445703125,0.29457857413589955,-0.11023556769788265,0.6734959120385349
1667916005937531000,10.18453076171875,0.2653700153082609,-0.012280512641370296,0.6623273061618209
1667916005947606000,10.19460595703125,0.19592355411648749,0.018697686207294464,0.6924085561707616
1667916005957681200,10.20468115234375,0.11785831766128539,-0.013664952737092971,0.6575514700621367
1667916005967756000,10.214756103515626,0.028315409380197522,-0.0655599751472473,0.6523615002036094
1667916005977830100,10.224830078125,0.013469137904047966,-0.13820494011938572,0.6480310697838664
1667916005987905000,10.234905029296876,-0.08461714231669902,-0.2102504778936505,0.6697877051703631
1667916005997980200,10.244980224609375,-0.33540859717428684,-0.3039028673201799,0.7176359364077448
1667916006008055300,10.25505517578125,-0.49324587400257586,-0.3924170170754194,0.7220406011074781
1667916006018129200,10.265129150390624,-0.5441296735435724,-0.4619119935840368,0.7072296932056545
1667916006028204300,10.275204345703125,-0.6680833854705095,-0.47974224930703635,0.6570496580198407
1667916006038279200,10.285279052734374,-0.7176829904198646,-0.4890086748242378,0.6527960922285914
1667916006048354000,10.29535400390625,-0.7601859151065349,-0.5070566649511457,0.603722849240899
1667916006058428200,10.30542822265625,-0.8156967899262905,-0.46006052049845453,0.5701262845873832
1667916006068503000,10.3155029296875,-0.9160942696988582,-0.4126812219470739,0.5823677803926169
1667916006078578000,10.325577880859376,-0.9987234530687331,-0.41077188119441266,0.5496506289221346
1667916006088653000,10.335653076171875,-0.9113117115974426,-0.45499768415093417,0.5016014682851732
1667916006098728200,10.345728271484376,-0.620989041340351,-0.4943766315981745,0.4970416130237281
1667916006108802000,10.355802001953125,-0.4661065226644277,-0.41442923465818166,0.46256738875284786
1667916006118877200,10.365877197265625,-0.46882571849524973,-0.45380321366935966,0.4566502736635506
1667916006128952000,10.3759521484375,-0.3808382229626179,-0.6208244984284043,0.5668515007004141
1667916006139027200,10.386027099609375,-0.24391513934731482,-0.6623924803525209,0.6314119434162974
1667916006149101000,10.39610107421875,-0.09825929870009421,-0.6805395469397306,0.5736377998396754
1667916006159176200,10.40617626953125,0.005465279668569564,-0.7765402530580758,0.5772162428483366
1667916006169251300,10.416251220703124,-0.060980830663442606,-0.8157128642782568,0.6179919053509831
1667916006179326000,10.426325927734375,-0.2866203086078167,-0.7664180874943732,0.663518854033947
1667916006189400300,10.436400390625,-0.4881418288618326,-0.8031196324259042,0.6740187668688595
1667916006199475000,10.446474853515625,-0.6339408773720264,-0.823596018743515,0.6493555963858961
1667916006209550000,10.456550048828126,-0.5988473521590233,-0.7712319175168871,0.6216594879478216
1667916006219625000,10.466625,-0.5539145699769258,-0.6739151603639125,0.5212114470317959
1667916006229700000,10.4767001953125,-0.5374906739205122,-0.5438607934743166,0.4388245479851961
1667916006239774000,10.48677392578125,-0.5336550412803888,-0.4194266045540571,0.3894233882173896
1667916006249849000,10.49684912109375,-0.4673819494277239,-0.3327536987513304,0.2490942955508828
1667916006259924200,10.50692431640625,-0.5989964052408934,-0.1993064745530486,0.1712720740713179
1667916006269999000,10.5169990234375,-0.9330044879674911,-0.06015577801614999,0.23918095043227075
1667916006280073200,10.5270732421875,-1.2684212684482334,0.08616612532436847,0.3763382811948657
1667916006290148000,10.537148193359375,-1.3536089041292667,0.24898995839357374,0.4067983013883233
1667916006300223200,10.54722314453125,-1.358849142870307,0.4335924925506115,0.28253333155512805
1667916006310298000,10.557298095703125,-1.2199579740524291,0.5796545759111642,0.12675678664892912
1667916006320372200,10.567372314453126,-0.9171089996993541,0.6831266408234834,-0.060200201679766176
1667916006330447000,10.577447021484375,-0.5936275716841221,0.760538381806016,-0.27997663280963897
1667916006340522000,10.58752197265625,-0.25227204880416393,0.7671481553345918,-0.41625864204242824
1667916006350593800,10.59759375,-0.0029670331120491026,0.7862877400904893,-0.4633060782909393
1667916006360667600,10.607667724609374,0.11779811190664767,0.8412076632797717,-0.41974838385432955
1667916006370742800,10.61774267578125,0.10772504618167876,0.862168033722043,-0.28958851076364517
1667916006380818000,10.62781787109375,0.08584639185070991,0.8162453637197613,-0.08785042514950037
1667916006390892800,10.637892822265625,0.23034546367824077,0.8459744392901658,-0.02153729354739189
1667916006400968000,10.647968017578124,0.21994448117315768,0.8760919296562671,-0.06292597338184713
1667916006411041800,10.658041748046875,0.2822352253913879,0.8534013744205236,0.035392215898633
1667916006421117000,10.668116943359376,0.26481179690361023,0.9222329185843468,0.08840601320564746
1667916006431191800,10.67819189453125,0.30754443869292736,1.082708727222681,0.10085413749888539
1667916006441266700,10.6882666015625,0.3138420775324106,1.1318006749108434,0.06983005368188024
1667916006451340800,10.6983408203125,0.39279520273804663,1.078752975334227,0.010618424648046493
1667916006461415700,10.708415771484376,0.47610067793428895,1.1194161173731088,0.08175415410101414
1667916006471490800,10.71849072265625,0.5024474175900221,1.1905869181394577,0.21225684927999972
1667916006481565700,10.728565673828125,0.48289925203323364,1.0978557352110743,0.389510189718008
1667916006491639800,10.738639892578124,0.3430722636699676,0.8885217876404523,0.5425757220998406
1667916006501714700,10.748714599609375,0.258006793063879,0.7058540209382772,0.6740542765736579
1667916006511789800,10.758789794921874,0.24881460182666776,0.5420654344901442,0.7858765289410948
1667916006521865000,10.768864990234375,0.16802724693119525,0.4463976135879755,0.9162366007789969
1667916006531939800,10.77893994140625,0.21890110960006712,0.3315206498250365,1.0209718174949287
1667916006542014000,10.789013916015625,0.28223405634760856,0.3327551600560546,1.041079224369675
1667916006552088800,10.7990888671875,0.17450608755648134,0.390405384992063,0.9206460877843201
1667916006562163700,10.809163818359375,0.02093640504479408,0.2687038359060883,0.840095610384643
1667916006572238800,10.81923876953125,-0.060630117529630656,0.14718670347630977,0.7221371933497488
1667916006582312700,10.829312744140625,-0.1598427714318037,0.18495587763935326,0.6314947993941604
1667916006592387800,10.839387939453125,-0.4555868822157383,0.18261048355698584,0.5615966489121318
1667916006602462700,10.849462646484374,-0.6646592562407255,0.012187573660910129,0.4963274734050035
1667916006612537900,10.859537841796875,-0.7171136660993099,-0.09873334595263003,0.39854952848106623
1667916006622611700,10.86961181640625,-0.825328541624546,-0.016142741027474403,0.230792622923851
1667916006632686800,10.879686767578125,-0.945522608757019,-0.018790040665864944,0.12766279557794333
1667916006642761700,10.88976171875,-0.8646066590458155,-0.11773644484728574,0.016994973942637444
1667916006652836900,10.8998369140625,-0.7230541620641946,-0.11474340051114558,-0.14348828734979033
1667916006662912000,10.909912109375,-0.5473217475831509,-0.03312368644475937,-0.311193024328351
1667916006672985900,10.91998583984375,-0.48373745642304417,0.01759060174822807,-0.4849737202197313
1667916006683061000,10.93006103515625,-0.570257217490673,0.04747252979278564,-0.6845806390240788
1667916006693135600,10.940135498046875,-0.5946674361258745,0.07811579759865998,-0.7840545742109417
1667916006703210800,10.950210693359375,-0.5795160442233085,0.12572948942780493,-0.8458300623834133
1667916006713284600,10.96028466796875,-0.5065478386461735,0.15514876839667557,-0.8493386550262569
1667916006723359700,10.97035986328125,-0.5041682500332594,0.229373403775692,-0.8203810022197663
1667916006733435000,10.980434814453124,-0.6074836630791426,0.30852059024870393,-0.9035945613488554
1667916006743509800,10.990509765625,-0.594006341868639,0.24885902549028396,-1.0345080292858182
1667916006753583900,11.000583984375,-0.45010055975914,0.1640621426925063,-1.144151330178976
1667916006763658800,11.01065869140625,-0.31986908273696896,0.2273509580373764,-1.2506751838773489
1667916006773734000,11.02073388671875,-0.15133856245875357,0.26260434998720883,-1.3189226445429025
1667916006783808800,11.030808837890625,0.07456804198920726,0.25858634651750323,-1.3610564436562358
1667916006793883000,11.0408828125,0.16422025586366654,0.25202508830577136,-1.452300456766784
1667916006803957800,11.050957763671875,0.03433715388774872,0.21884470323771238,-1.5214200240917504
1667916006814033000,11.061032958984375,0.005172434201836586,0.1744464663237333,-1.3462909823313354
1667916006824107800,11.071107666015624,0.17807926986813544,0.07645078699588775,-1.3751032353177666
1667916006834182700,11.0811826171875,0.4255693450927734,0.1472644448876381,-1.1688286753177641
1667916006844256800,11.0912568359375,0.5739017114728688,0.1150803773805499,-1.1033481951475144
1667916006854331600,11.10133154296875,0.6764929018974304,0.030422026270627973,-1.0130276535574345
1667916006864406800,11.11140673828125,0.7186123802244663,0.0028279169023036955,-0.9927248702410608
1667916006874482000,11.12148193359375,0.6039847150474786,-0.027751930278539658,-0.9741380970623343
1667916006884555800,11.1315556640625,0.3710486503541469,-0.04522182825654745,-0.823269197941944
1667916006894631000,11.141630859375,0.16442366948127746,-0.13109364680945873,-0.68969783590734
1667916006904705800,11.151705810546876,0.06816226660013198,-0.1774585076212883,-0.5861722141768783
1667916006914781000,11.161781005859375,-0.03482990584075451,-0.1559814198285341,-0.5128223158057779
1667916006924854800,11.171854736328125,0.05867080015540123,-0.1533119083583355,-0.5233829458519816
1667916006934930000,11.181929931640624,0.09255319601297378,-0.12881751857101917,-0.5753352514073252
1667916006945004800,11.1920048828125,0.11020926421284676,-0.16436024885624645,-0.6451508381724357
1667916006955079700,11.20207958984375,0.0807142896592617,-0.19790625236630438,-0.7317682143956422
1667916006965154800,11.21215478515625,0.0676695146471262,-0.20833266157358885,-0.7688406384661793
1667916006975228700,11.222228759765626,-0.11473930885791778,-0.25657120730280875,-0.7562282635219395
1667916006985303800,11.2323037109375,-0.4315215314954519,-0.3722343530073762,-0.6806213069390505
1667916006995378700,11.242378662109376,-0.5561918672591447,-0.5032479203179478,-0.5020568839024752
1667916007005453800,11.252453857421875,-0.5612777922213077,-0.5858870405599474,-0.382876450791955
1667916007015527700,11.262527587890625,-0.60608957837224,-0.6459174386307597,-0.33201595906130965
1667916007025602800,11.272602783203125,-0.6170680685043335,-0.6928630219399928,-0.30908830713406205
1667916007035678000,11.282677978515625,-0.6015343992859125,-0.6671513653174043,-0.336800489924103
1667916007045752800,11.2927529296875,-0.6748159085959196,-0.5763835914164781,-0.3777957865267992
1667916007055827000,11.302826904296875,-0.6726175217688083,-0.5515940180748701,-0.3567561403032392
1667916007065901800,11.31290185546875,-0.6206809983044862,-0.5111982948005199,-0.37794725076146424
1667916007075977000,11.32297705078125,-0.5397334844112396,-0.48457361498624085,-0.4841561202265322
1667916007086051600,11.333051513671874,-0.4060439758896828,-0.5542495010197163,-0.563471356742829
1667916007096126000,11.3431259765625,-0.3329121041834354,-0.5699269626230001,-0.5457677230741829
1667916007106200600,11.35320068359375,-0.41222178774178025,-0.5967901273682713,-0.4372942696779966
1667916007116275700,11.363275634765625,-0.5356640430152416,-0.6605819237992168,-0.28100948298871514
1667916007126350800,11.373350830078126,-0.6466618272572755,-0.6558481732755899,-0.11434651014804839
1667916007136425700,11.38342578125,-0.6917804874002933,-0.5602326670825482,0.0022106617867946625
1667916007146499800,11.393499755859375,-0.6875701762288808,-0.5219783397510648,-0.024493659134954212
1667916007156574700,11.40357470703125,-0.5768757588475942,-0.4432943868756294,-0.053276686026901006
1667916007166649900,11.41364990234375,-0.4561123673945665,-0.26497429398894307,-0.14339651741310952
1667916007176725000,11.42372509765625,-0.3570364916145801,-0.17115619260668755,-0.2419409166648984
1667916007186798800,11.433798828125,-0.37664778553545475,-0.11803221292346715,-0.22323738523870706
1667916007196874000,11.4438740234375,-0.44328445000350475,-0.11535393362492322,-0.05783844098448753
1667916007206948900,11.453948974609375,-0.6680892306894064,-0.0992906875744462,0.17473843500763178
1667916007217023700,11.464023681640626,-0.7510106750041246,-0.1003971875116229,0.48870676926821466
1667916007227098600,11.4740986328125,-0.8257447212100029,0.020270926873385903,0.758390702252835
1667916007237172700,11.4841728515625,-0.6811193926542997,0.12052724460959434,0.729569827568531
1667916007247247600,11.49424755859375,-0.3303524828284979,0.17283406269103288,0.45118177912458773
1667916007257322800,11.50432275390625,0.1237052901238203,0.18682897803485393,0.11568915692865848
1667916007267398000,11.51439794921875,0.3456698789477348,0.17433599168658256,-0.05306260488480329
1667916007277471700,11.5244716796875,0.3043044338583946,0.1201388298138976,-0.0050900166153907776
1667916007287547000,11.534546875,0.2834814260601997,0.033420915825665,0.23072321094945072
1667916007297621800,11.544621826171875,0.28989421571195123,-0.005208966819941997,0.5636268395654856
1667916007307697000,11.55469677734375,0.29278233836889267,-0.06159457864761352,0.8684117504172026
1667916007317770800,11.564770751953125,0.35382922000586986,-0.11804273431748151,1.0466484028041363
1667916007327846000,11.574845947265626,0.35112697530984877,-0.10754881283193826,1.0623103745773435
1667916007337921000,11.584921142578125,0.3628951545149088,-0.14923428365588187,1.0148451513081789
1667916007347995100,11.5949951171875,0.3245516875952482,-0.14677549232691525,1.0096635108865797
1667916007358070000,11.605070068359375,0.332938992190361,-0.14949556494057178,1.0583354795970021
1667916007368144100,11.61514404296875,0.3847732243239879,-0.0806096602410078,1.1561861974962055
1667916007378219000,11.625218994140624,0.4002309056967497,-0.008387012334167956,1.2083077221386134
1667916007388294000,11.6352939453125,0.3822977741211653,-0.008956628915667533,1.2145955702364444
1667916007398369000,11.645369140625,0.1768266394585371,0.04271510613262653,1.2045336104273796
1667916007408443000,11.65544287109375,-0.04622340651452541,0.06997779158949852,1.187436052893102
1667916007418518000,11.66551806640625,-0.16721300793886185,0.17862872044444084,1.2763247350491582
1667916007428593200,11.67559326171875,-0.27500176700651646,0.30146950269341466,1.3162275602400302
1667916007438668000,11.68566796875,-0.1819458821684122,0.33914749144166706,1.1904124383553862
1667916007448742100,11.6957421875,-0.04448503841459751,0.3653837564602494,0.9880980141580105
1667916007458817000,11.705817138671875,-0.04875438629686832,0.34976854643821714,0.8000966313429176
1667916007468892200,11.71589208984375,-0.12364391532540321,0.2765960504606366,0.6846367531254888
1667916007478967000,11.725967041015625,-0.10890402683317661,0.17353461217582225,0.6782122730359434
1667916007489042000,11.7360419921875,0.055638885113596916,0.08171469887346029,0.7398400233007967
1667916007499116300,11.7461162109375,0.049422494816780085,0.0277151053994894,0.843731482668966
1667916007509191000,11.75619091796875,0.11000292798578738,-0.10519114378988742,0.8569196116745471
1667916007519266000,11.76626611328125,0.13189502632021904,-0.24393267500400542,0.7975804107382893
1667916007529341000,11.7763408203125,0.296196530726552,-0.3759843531906605,0.7354555246062576
1667916007539415000,11.7864150390625,0.5924263792008161,-0.4414142722174525,0.6136623517140746
1667916007549490000,11.796489990234376,0.7497966230392455,-0.4519485257133841,0.5154106517985463
1667916007559565000,11.80656494140625,0.8964829757779836,-0.5572442989215255,0.4524500454947352
1667916007569640200,11.81664013671875,0.9086310942113399,-0.6666422467514872,0.39365065052360293
1667916007579714000,11.826714111328124,0.6382225002139806,-0.7490241773620248,0.43767435503676533
1667916007589789200,11.8367890625,0.2821393638014793,-0.8803899191111326,0.5927241931036115
1667916007599864000,11.846864013671874,0.016625556108355522,-1.0103273816227911,0.77013564671278
1667916007609939200,11.856939208984375,-0.19173019407987593,-1.0727589956164358,0.8989058190107345
1667916007620014000,11.86701416015625,-0.2647995219439268,-1.0948115452095866,0.9563454699359833
1667916007630088200,11.877088134765625,-0.3980693437486887,-0.9907976285055279,0.9581234393939375
1667916007640163000,11.8871630859375,-0.6102385147452354,-0.8729898719877004,0.8981086772836744
1667916007650238000,11.897238037109375,-0.7166016249239444,-0.8510092185869812,0.7632751132935285
1667916007660313000,11.90731298828125,-0.6260118379384279,-0.7840905223071575,0.6268477042406797
1667916007670387000,11.917386962890625,-0.47988954882323737,-0.7115113160476088,0.5135676542803644
1667916007680462000,11.927462158203125,-0.5439642538487911,-0.6078752927452326,0.4946572021052241
1667916007690537000,11.937536865234375,-0.6784025349110364,-0.6184998548731208,0.4996097099460661
1667916007700612000,11.947612060546875,-0.5983370645493269,-0.7100035418331623,0.5321405450642108
1667916007710686000,11.95768603515625,-0.5595236420303583,-0.6320587168872356,0.514075896063447
1667916007720761000,11.967760986328125,-0.6684680008739232,-0.640062575122714,0.5087988324433564
1667916007730836200,11.977836181640624,-0.6436299122154713,-0.7750538138926029,0.5443135056778788
1667916007740911000,11.9879111328125,-0.5576216078013181,-0.7998375420153141,0.5598560888551175
1667916007750986000,11.997986083984374,-0.4783943418294191,-0.8524600019171833,0.4982664786435663
1667916007761060000,12.00806005859375,-0.444376921415329,-0.9297954627931118,0.5833180668547749
1667916007771135000,12.018135009765626,-0.6691179892152548,-0.8950394989714026,0.7623422163575887
1667916007781209900,12.0282099609375,-1.003226025184989,-0.8429974693059921,0.9459940256610512
1667916007791285000,12.038284912109376,-1.359471658682823,-0.8353378944635391,1.0363789377242325
1667916007801359000,12.048359130859374,-1.5028209759533404,-0.7798784575700759,1.0459411313176155
1667916007811434000,12.05843408203125,-1.4414087681353092,-0.536786032782495,0.9008465778149664
1667916007821509000,12.068509033203124,-1.3035381745368242,-0.26233839252740143,0.6153185944885015
1667916007831584000,12.078583984375,-1.2303747386485338,-0.05195522816479206,0.33474574935138224
1667916007841658000,12.088658203125,-1.0694120232760906,0.06855535757094622,0.04515767697915435
1667916007851733000,12.09873291015625,-0.8215110291630029,0.11480477530956268,-0.2325236845001578
1667916007861808000,12.10880810546875,-0.7570318349897861,0.09185410783290862,-0.4007376861751079
1667916007871883300,12.11888330078125,-0.9140572109133005,0.0717126525580883,-0.29477102796807886
1667916007881958000,12.1289580078125,-1.0701058507591485,0.13547463837265966,-0.007729132947325706
1667916007892032300,12.1390322265625,-1.1301181286513804,0.28354513894617556,0.2651411749884486
1667916007902107000,12.14910693359375,-1.1576163764297962,0.3787736916482448,0.29371655047908424
1667916007912182000,12.15918212890625,-0.8809744410008191,0.3397729298636317,0.1497036547333002
1667916007922257000,12.1692568359375,-0.43906712456941605,0.342926133197546,-0.13212138242200017
1667916007932331000,12.1793310546875,-0.2135685164004564,0.4128577475577593,-0.3470660094812512
1667916007942406100,12.18940625,-0.08825111490488052,0.46583062833249567,-0.29792788456380365
1667916007952481000,12.19948095703125,0.07784954787790775,0.5317696659252047,-0.15015855889394877
1667916007962556200,12.20955615234375,0.1899924105018377,0.6757768625825643,-0.05859510457068681
1667916007972631000,12.219631103515624,0.33678865335583685,0.746668261885643,-0.06604542057663201
1667916007982705200,12.229705078125,0.4181248743057251,0.7835714668691158,-0.18182488613724707
1667916007992780000,12.239780029296876,0.19555121367275713,0.9231383429914712,-0.2823030299305916
1667916008002855200,12.249855224609375,-0.04558686217665672,1.0170146043017505,-0.41725525186434387
1667916008012930000,12.259929931640626,-0.10550678561031818,1.0273302466109395,-0.4931111417070031
1667916008023004200,12.270004150390625,-0.1129044946461916,1.0821227440282701,-0.4740210951812565
1667916008033079000,12.2800791015625,-0.23979601359069347,1.1505085902512073,-0.4600102516159415
1667916008043154000,12.29015380859375,-0.16503157224655152,1.131049856543541,-0.4726091825567186
1667916008053229000,12.30022900390625,0.07957973267138004,1.1047355578526854,-0.5318339633330702
1667916008063303000,12.310302978515624,0.24938977136611937,1.1233815138727425,-0.5727103097312152
1667916008073378000,12.3203779296875,0.3817179284065962,1.1084449337646365,-0.6680186496712267
1667916008083453200,12.330453125,0.6025812779903411,1.0724211419641971,-0.8002138279817997
1667916008093528000,12.340528076171875,0.7406570387721061,1.0493769509851931,-0.8472102646954357
1667916008103603200,12.350603271484376,0.7894330523788928,0.9406047338381409,-0.861481805023551
1667916008113677000,12.360677001953125,0.7362865686029195,0.8366670972406863,-0.6776870801180601
1667916008123752200,12.370752197265626,0.6210889945834874,0.7726841621518135,-0.5170185253866016
1667916008133827000,12.3808271484375,0.5591501325428485,0.6268810219883918,-0.4007932157546282
1667916008143902000,12.39090185546875,0.6229179635763168,0.45259062300920483,-0.3583769464381039
1667916008153976000,12.40097607421875,0.7098176638722419,0.3377361633390188,-0.31006460482031106
1667916008164051000,12.411051025390625,0.7368424489200115,0.2661816239520907,-0.19624182628542183
1667916008174126000,12.4211259765625,0.7767226238876581,0.22033961797058582,-0.1365394911251962
1667916008184201000,12.431200927734375,0.8293833699733019,0.16903671623468397,-0.11394772008880973
1667916008194276000,12.441276123046874,0.8839262765437365,0.09475508997142314,-0.14940174917727708
1667916008204350000,12.451349853515625,0.8327373565763234,0.016330080293118953,-0.24903861984089015
1667916008214425000,12.461425048828126,0.7578156788438558,-0.12667115419209002,-0.3535084636189043
1667916008224500200,12.471500244140625,0.6739893946439027,-0.2765475351437926,-0.3328210648991167
1667916008234575000,12.4815751953125,0.6233347276836634,-0.36897681251615283,-0.2129303646273911
