time,seconds_elapsed,z,y,x
1667915995792200700,0.03920068359375,-7.025511800006032,2.324200779952109,-6.435111373674869
1667915995802275600,0.049275634765625,-7.036179324492812,2.3164967814460393,-6.426227809995413
1667915995812350700,0.059350830078125,-7.038731931585073,2.3158840563751757,-6.423652406549453
1667915995822425600,0.069425537109375,-7.031276354882121,2.3208340799979865,-6.430028371322154
1667915995832500700,0.079500732421875,-7.012635367298126,2.329533665412664,-6.447216822010279
1667915995842576000,0.089575927734375,-6.985027813926338,2.339402440737188,-6.473559470012783
1667915995852650800,0.099650634765625,-6.953776935616135,2.3465086194805798,-6.504557250344753
1667915995862724900,0.109724853515625,-6.9260273434251545,2.347642299685627,-6.533689821326732
1667915995872799700,0.1197998046875,-6.909096666890382,2.342015691975504,-6.5536038975864646
1667915995882874600,0.12987451171875,-6.907522549441456,2.330341766925156,-6.5594222284764045
1667915995892949500,0.139949462890625,-6.923086029276251,2.3116301983229817,-6.549627979692817
1667915995903024600,0.150024658203125,-6.950669032728672,2.285008294987678,-6.529725009348988
1667915995913099800,0.160099853515625,-6.982962698090076,2.251476320002973,-6.506878971290588
1667915995923174700,0.170174560546875,-7.014355615219474,2.21358045072034,-6.486082266977429
1667915995933248800,0.180248779296875,-7.04381142680645,2.1733134683921933,-6.467751660516858
1667915995943323600,0.19032373046875,-7.073638409793377,2.1315618004642425,-6.449067418313026
1667915995953398800,0.200398681640625,-7.104666585263609,2.088971489755064,-6.428864003717899
1667915995963474000,0.210473876953125,-7.13480511841774,2.045875713741779,-6.409316422683
1667915995973548500,0.220548583984375,-7.15858229984641,2.0051114494159816,-6.395671343690156
1667915995983623700,0.230623779296875,-7.173980359986424,1.9698859683863819,-6.3893608453691
1667915995993698600,0.240698486328125,-7.18200759909749,1.940871763087064,-6.389222898203134
1667915996003772700,0.250772705078125,-7.186900631836056,1.9174759821914136,-6.390784156170487
1667915996013847600,0.26084765625,-7.1946730194032185,1.9001582060351967,-6.387210389336944
1667915996023922700,0.270922607421875,-7.212475218075514,1.8876017990618943,-6.370835008597374
1667915996033997800,0.280997802734375,-7.240247022098303,1.877298139451444,-6.342315016555785
1667915996044072700,0.29107275390625,-7.2709344213068485,1.8674558137424289,-6.310031872588396
1667915996054147800,0.30114794921875,-7.2970333236813545,1.8561128742121158,-6.2831947190672155
1667915996064222500,0.311222412109375,-7.311976625791192,1.8419627683065831,-6.269972833922505
1667915996074296800,0.321296875,-7.3113669694602486,1.824200609383732,-6.275872997877001
1667915996084371700,0.331371826171875,-7.2930679271817205,1.802459902218729,-6.303387027746439
1667915996094446600,0.341446533203125,-7.258102412262558,1.777620352255553,-6.350622241652012
1667915996104521700,0.351521728515625,-7.211002807435393,1.750468579827249,-6.411527668991685
1667915996114596600,0.3615966796875,-7.158817862167954,1.721622424571216,-6.477478104761243
1667915996124671700,0.371671630859375,-7.111037873861194,1.6911803784258663,-6.537846356484294
1667915996134745600,0.38174560546875,-7.073682833456993,1.6598175641737878,-6.586227817815542
1667915996144820700,0.39182080078125,-7.0471911323726175,1.627463108535856,-6.622601445966959
1667915996154896000,0.401895751953125,-7.029101348930597,1.593615637861192,-6.650000325024128
1667915996164970800,0.411970703125,-7.016183999690413,1.5585972237110137,-6.671905282840132
1667915996175045600,0.422045654296875,-7.0093106067895885,1.5216706378519533,-6.687635351413488
1667915996185120500,0.43212060546875,-7.009173828667402,1.4805686660043895,-6.696998223042487
1667915996195195600,0.442195556640625,-7.011817036652564,1.4336227904342114,-6.704441524785756
1667915996205269500,0.45226953125,-7.01258977459073,1.3803816141121088,-6.714798083627223
1667915996215344600,0.4623447265625,-7.008931252083182,1.321378221001476,-6.730469115489721
1667915996225419800,0.472419677734375,-7.001398518490791,1.2588802637733518,-6.7502616111963984
1667915996235494700,0.48249462890625,-6.991970764932036,1.1958353401869535,-6.7714628046572205
1667915996245569800,0.49256982421875,-6.987184115177392,1.1349347351528702,-6.78686787905991
1667915996255644700,0.502644775390625,-6.99440529860258,1.0775544131994246,-6.788781603726744
1667915996265719600,0.512719482421875,-7.014832585081457,1.024198086065054,-6.775952517291903
1667915996275793700,0.522793701171875,-7.044194288644194,0.9740602825857698,-6.752845197948813
1667915996285868500,0.53286865234375,-7.076372803193331,0.9256761178407817,-6.725953683891892
1667915996295943700,0.542943603515625,-7.107334343168139,0.8755391911443322,-6.699971101373434
1667915996306018600,0.5530185546875,-7.134874676522612,0.8208291113134473,-6.677588004651665
1667915996316093700,0.56309375,-7.155657936832308,0.7608255281843245,-6.662438950836658
1667915996326168800,0.5731689453125,-7.170061140716076,0.6965620225884019,-6.653977411961555
1667915996336242700,0.58324267578125,-7.183733107715844,0.630514190858975,-6.645812225684523
1667915996346317600,0.593317626953125,-7.201007483121752,0.5647731235237792,-6.633016456997394
1667915996356392700,0.603392822265625,-7.223030514359474,0.49931613382697104,-6.614294805392623
1667915996366467800,0.6134677734375,-7.246458736220002,0.4359892514940351,-6.59311290115416
1667915996376542500,0.62354248046875,-7.271466336226463,0.3770209662294015,-6.569170884552598
1667915996386617600,0.63361767578125,-7.303167880913615,0.32223033197559414,-6.536840978834032
1667915996396692500,0.6436923828125,-7.34208125667572,0.2693470291804522,-6.495511774101853
1667915996406766600,0.6537666015625,-7.3846449716389175,0.21601813804227857,-6.449087876579165
1667915996416841500,0.663841552734375,-7.43229227347672,0.16216264748042447,-6.395711091178655
1667915996426916600,0.67391650390625,-7.487099383941293,0.10850804065237753,-6.33260961509943
1667915996436991700,0.68399169921875,-7.547832961845398,0.05619324932703748,-6.26078648790419
1667915996447066600,0.694066650390625,-7.610123121541738,0.0056249289221566865,-6.185174489820003
1667915996457141800,0.704141845703125,-7.657924737158417,-0.046054822181700726,-6.1257204303324215
1667915996467215600,0.714215576171875,-7.699197243267298,-0.09469248219714499,-6.073201723065972
1667915996477290800,0.724290771484375,-7.741781416496634,-0.12959354444481433,-6.018173078805208
1667915996487365600,0.73436572265625,-7.79352504773736,-0.15246154773985035,-5.950470830932259
1667915996497440500,0.7444404296875,-7.855819299086928,-0.16697636790508402,-5.867589718627929
1667915996507515600,0.754515625,-7.925943221148848,-0.17840092130424454,-5.772172949877381
1667915996517590500,0.764590576171875,-7.9980895889490835,-0.19168472923664376,-5.671349938169121
1667915996527665700,0.774665771484375,-8.06721339405775,-0.21091756350025534,-5.571890616029501
1667915996537739500,0.784739501953125,-8.132631330385804,-0.23725376349566504,-5.474888039392233
1667915996547814700,0.794814697265625,-8.195718193417788,-0.2685636054514907,-5.378518499961495
1667915996557889800,0.804889892578125,-8.2566212826699,-0.3021177922680042,-5.282737574073672
1667915996567964700,0.814964599609375,-8.31426916951835,-0.33767961084619164,-5.189343251061439
1667915996578039600,0.82503955078125,-8.366968494048715,-0.37843496121317144,-5.101079861196875
1667915996588114400,0.835114501953125,-8.412628421461582,-0.4290117771642282,-5.021355167096853
1667915996598188500,0.8451884765625,-8.450150635126233,-0.49168658879660065,-4.952129655179381
1667915996608263400,0.855263427734375,-8.48135650525093,-0.5648437776071951,-4.890595866808295
1667915996618338600,0.865338623046875,-8.507901397827267,-0.644505599071458,-4.834316053442657
1667915996628413700,0.87541357421875,-8.529127141207455,-0.7267451255366206,-4.784999064826965
1667915996638488600,0.885488525390625,-8.54409323967099,-0.8076507730495184,-4.745161267696321
1667915996648563700,0.895563720703125,-8.557271285673975,-0.879925662600249,-4.708420267537236
1667915996658638600,0.905638671875,-8.574687699899076,-0.9359088311068713,-4.665746370197832
1667915996668712700,0.915712646484375,-8.601668061283231,-0.969436056851223,-4.608892556336522
1667915996678787600,0.92578759765625,-8.63982565024197,-0.9776171713497489,-4.535201881703734
1667915996688862500,0.935862548828125,-8.684408888334035,-0.9629391691125929,-4.452433874385059
1667915996698937600,0.9459375,-8.729729793050884,-0.9327132499359547,-4.369468006406724
1667915996709012500,0.956012451171875,-8.77388399207592,-0.8950501664958894,-4.288149905635416
1667915996719087600,0.966087646484375,-8.816790821388363,-0.8569735338188708,-4.207157675817609
1667915996729162800,0.976162841796875,-8.857651239565014,-0.8221399747163057,-4.1275273820027705
1667915996739236600,0.986236572265625,-8.894031881979107,-0.789954007513076,-4.054941161480546
1667915996749311700,0.996311767578125,-8.923460805559158,-0.7598192006859928,-3.9956107283726334
1667915996759386600,1.00638671875,-8.94578018939495,-0.7321605747140943,-3.9506133565217256
1667915996769461500,1.01646142578125,-8.961154284137487,-0.7094186546172946,-3.919798823802173
1667915996779536600,1.02653662109375,-8.970991787540912,-0.6939660147458314,-3.9000133423581715
1667915996789611500,1.036611572265625,-8.979117810851335,-0.6872046308521181,-3.8824700868830084
1667915996799685600,1.046685546875,-8.989100275683402,-0.6888526903200894,-3.859007378230989
1667915996809760500,1.056760498046875,-9.002557723149657,-0.696499990202859,-3.8261239302828907
1667915996819835600,1.066835693359375,-9.018525107610225,-0.7071838082373142,-3.7863542299523947
1667915996829910500,1.07691064453125,-9.033537967824936,-0.7177554711341857,-3.7483863183468578
1667915996839985700,1.086985595703125,-9.042392305409908,-0.7252686232432722,-3.7255218678489324
1667915996850060800,1.097060791015625,-9.041616644862295,-0.7276580756630748,-3.726937287604809
1667915996860134700,1.107134765625,-9.030786623290181,-0.7242729632694274,-3.753759243556857
1667915996870209800,1.117209716796875,-9.012717882636188,-0.7157082562807947,-3.7985613850966096
1667915996880284700,1.12728466796875,-8.992739508968592,-0.7036413133248687,-3.847845055964589
1667915996890359600,1.137359619140625,-8.975856178706884,-0.6900746333304792,-3.889496332257986
1667915996900434400,1.147434326171875,-8.963812105169891,-0.6764795309592038,-3.919545141302049
1667915996910509600,1.157509521484375,-8.955354073426127,-0.664357935206592,-3.9408939265400167
1667915996920584700,1.167584716796875,-8.948967002737522,-0.6548463027566671,-3.956962725548446
1667915996930658600,1.177658447265625,-8.941483368983864,-0.6466235410735011,-3.9751907484173774
1667915996940733700,1.187733642578125,-8.929860151207446,-0.6367085154544562,-4.002821682664751
1667915996950808600,1.19780859375,-8.91338598626852,-0.6217637520398944,-4.041700571635365
1667915996960883700,1.2078837890625,-8.894075721120833,-0.5984696414204314,-4.087497569431364
1667915996970958600,1.21795849609375,-8.87681128258705,-0.565169867756404,-4.129551289045811
1667915996981033500,1.228033447265625,-8.864548597863315,-0.524477901481837,-4.161139728747308
1667915996991107600,1.238107666015625,-8.857879787623881,-0.4811420331023633,-4.180532703742385
1667915997001182500,1.248182373046875,-8.855531178671121,-0.43985849414281547,-4.190045212975144
1667915997011257600,1.258257568359375,-8.856473427957296,-0.4052960070665925,-4.191538374142349
1667915997021332500,1.26833251953125,-8.85937557913959,-0.38124618270900096,-4.187660655926168
1667915997031407600,1.27840771484375,-8.86331116502285,-0.36983682687897235,-4.1803488716080786
1667915997041482800,1.288482666015625,-8.867267793694138,-0.3705312023513019,-4.17188820951581
1667915997051556600,1.298556640625,-8.871229683062433,-0.38018878261055794,-4.162586712685227
1667915997061631700,1.3086318359375,-8.875448762062192,-0.3943004562018439,-4.1522675632447
1667915997071706600,1.31870654296875,-8.878003707242012,-0.40755679160542785,-4.1455195502892135
1667915997081781500,1.328781494140625,-8.87675516848564,-0.415697464495711,-4.147384175117313
1667915997091856600,1.338856689453125,-8.871053741973638,-0.41640875457022336,-4.159494591888785
1667915997101931500,1.348931640625,-8.861303332331776,-0.40865448718164116,-4.180990968903899
1667915997112006700,1.359006591796875,-8.848550233742595,-0.3936692090936005,-4.209343203163146
1667915997122080500,1.36908056640625,-8.83330005764067,-0.3744237162778154,-4.242994420613348
1667915997132155600,1.37915576171875,-8.816606696993112,-0.35425946464929725,-4.279290891875326
1667915997142230500,1.38923046875,-8.800933327043056,-0.3358857131667435,-4.312904115402699
1667915997152305700,1.3993056640625,-8.78872792546451,-0.32039979208018626,-4.338893127661943
1667915997162380800,1.409380859375,-8.783453784453869,-0.3081516838710755,-4.350445033767819
1667915997172455400,1.419455322265625,-8.785119087317586,-0.2993728409414179,-4.347693689233064
1667915997182529800,1.42952978515625,-8.790064727026223,-0.2950053116479888,-4.337985072906315
1667915997192604400,1.4396044921875,-8.794750254493952,-0.2953183596525341,-4.328457073843479
1667915997202679600,1.449679443359375,-8.796666317248343,-0.2995682539156638,-4.3242695590257645
1667915997212754400,1.45975439453125,-8.7945094314754,-0.3076408848047256,-4.328087363748252
1667915997222829600,1.46982958984375,-8.789893462112545,-0.31937541746851056,-4.336606770290434
1667915997232904700,1.47990478515625,-8.785584366741777,-0.33393235060926524,-4.3442356577336785
1667915997242978600,1.489978515625,-8.782906671965122,-0.35151970095448193,-4.348259798683226
1667915997253053700,1.5000537109375,-8.782335009557007,-0.3723580889848992,-4.347679952968657
1667915997263128600,1.510128662109375,-8.783377796608208,-0.3961720952926203,-4.343467011448741
1667915997273203700,1.52020361328125,-8.784623997277022,-0.4220678763104602,-4.338505297388136
1667915997283278600,1.530278564453125,-8.785640480843186,-0.4487937880095094,-4.33376190225333
1667915997293353500,1.540353515625,-8.788134051224588,-0.47663065662514414,-4.325726479835808
1667915997303427600,1.550427490234375,-8.793853013393282,-0.5049769360676407,-4.310862380442023
1667915997313502500,1.56050244140625,-8.803710975062847,-0.5330144783545285,-4.287301179851592
1667915997323577600,1.57057763671875,-8.816788483300805,-0.5599542519999667,-4.256885875582695
1667915997333652500,1.580652587890625,-8.829241137638688,-0.5847862031785771,-4.227636400222778
1667915997343727400,1.590727294921875,-8.837569990044832,-0.6064229385124519,-4.20713663302958
1667915997353802200,1.60080224609375,-8.84029327752888,-0.624495953482762,-4.198761895655095
1667915997363877400,1.61087744140625,-8.838648432931304,-0.6394956619549542,-4.199966595269739
1667915997373951200,1.620951171875,-8.837177775856851,-0.6520872863721102,-4.201125117655098
1667915997384026400,1.6310263671875,-8.841634170743822,-0.6618091275066137,-4.190214432062208
1667915997394101500,1.6411015625,-8.854707587328553,-0.6687067780658602,-4.161413869513571
1667915997404176100,1.651176025390625,-8.876008149510621,-0.6726820383723825,-4.1151387328118085
1667915997414251300,1.661251220703125,-8.903377802473306,-0.6736104783289134,-4.0554283604756
1667915997424326400,1.671326416015625,-8.934421175512671,-0.6710091367240995,-3.9870106578096745
1667915997434400300,1.681400146484375,-8.966640022072195,-0.665828446150571,-3.914897315496206
1667915997444475400,1.691475341796875,-8.999098522606491,-0.6603183774922042,-3.840649299241602
1667915997454550300,1.70155029296875,-9.031509676867723,-0.657341918964684,-3.764322430886328
1667915997464625400,1.71162548828125,-9.062519147637486,-0.6588357377190143,-3.6887756069928406
1667915997474700300,1.7217001953125,-9.091203974851965,-0.6655328972700983,-3.6162776492759585
1667915997484775400,1.731775390625,-9.116762194478511,-0.677676631789282,-3.549054417091608
1667915997494849300,1.741849365234375,-9.139335845336317,-0.6943299526873976,-3.4872374278649687
1667915997504924400,1.75192431640625,-9.159569655069708,-0.7139692305937408,-3.4297114138305185
1667915997514999300,1.761999267578125,-9.178395351570844,-0.7351895671464502,-3.374454221510887
1667915997525074200,1.77207421875,-9.197021141585708,-0.755960552496463,-3.318690540973842
1667915997535149300,1.7821494140625,-9.217208189567923,-0.7731078674566,-3.2581837575629353
1667915997545224400,1.792224365234375,-9.239958366036415,-0.7838838938191532,-3.190467481164634
1667915997555299300,1.80229931640625,-9.265559255760907,-0.7867161946356296,-3.1146222588464614
1667915997565373400,1.81237353515625,-9.292387056931853,-0.7822264820009469,-3.034806963853538
1667915997575448300,1.8224482421875,-9.317762905728816,-0.7728085922490805,-2.958453207491338
1667915997585523500,1.8325234375,-9.339504197415708,-0.7618955685686319,-2.8919816704571244
1667915997595598300,1.842598388671875,-9.356317969572544,-0.7519801045581698,-2.8397578544840214
1667915997605673200,1.852673095703125,-9.367880397072433,-0.7452640941761434,-2.803172629408538
1667915997615748400,1.862748291015625,-9.375279859673975,-0.7432318576961755,-2.778869378279149
1667915997625822200,1.872822265625,-9.379909857562184,-0.7465504076596349,-2.7623060737520455
1667915997635897300,1.8828974609375,-9.38292014529407,-0.7554040145922452,-2.7496479599699377
1667915997645972200,1.89297216796875,-9.384753205940127,-0.7681823206879198,-2.7398344219639896
1667915997656047400,1.90304736328125,-9.385732864627242,-0.7829524581879377,-2.7322853217586873
1667915997666122200,1.913122314453125,-9.387494029080868,-0.7976541335616261,-2.7219638342306016
1667915997676197400,1.923197265625,-9.391934641876816,-0.8111685719121247,-2.702581965151429
1667915997686271500,1.933271484375,-9.400897700533271,-0.821229289612174,-2.668161809155345
1667915997696346400,1.943346435546875,-9.414965973374247,-0.8265588140718638,-2.616409702347219
1667915997706421200,1.953421142578125,-9.433504085105657,-0.8273576362993568,-2.5485017027691006
1667915997716496100,1.96349609375,-9.454359241607785,-0.8256792547583579,-2.4705717831313607
1667915997726571300,1.9735712890625,-9.474905186030268,-0.8252462701685727,-2.390715571606159
1667915997736646400,1.983646484375,-9.492902615013717,-0.8291913545325398,-2.3168138845711943
1667915997746720300,1.99372021484375,-9.50757469896674,-0.8389221826910972,-2.2522459892012177
1667915997756795400,2.00379541015625,-9.520663897642493,-0.8543719730183482,-2.190294413809478
1667915997766870300,2.013870361328125,-9.533166820862888,-0.874298031976819,-2.1271396001078187
1667915997776945400,2.0239453125,-9.545350595131517,-0.896478957189992,-2.0622779824882747
1667915997787020300,2.034020263671875,-9.55778337572515,-0.9191606715321541,-1.9935664114423095
1667915997797095400,2.044095458984375,-9.570767944982647,-0.9405660092629492,-1.919928782171011
1667915997807169300,2.054169189453125,-9.583886369752884,-0.959142187982425,-1.8437882301680744
1667915997817244400,2.064244384765625,-9.596492753347754,-0.9746719116780906,-1.7685386356554924
1667915997827319300,2.0743193359375,-9.607245618030428,-0.9876813231159001,-1.7016773686513305
1667915997837394200,2.084394287109375,-9.61531903437078,-0.9998837290197611,-1.6481085678100584
1667915997847469300,2.09446923828125,-9.621090018987655,-1.0125510490216314,-1.6061594776138661
1667915997857544400,2.10454443359375,-9.625422495234012,-1.0260052816174923,-1.5712871939361095
1667915997867619300,2.114619384765625,-9.6290617285192,-1.0400566763889043,-1.5394275360777974
1667915997877693400,2.124693359375,-9.632691024932265,-1.0539514192938804,-1.5069273883588612
1667915997887768300,2.134768310546875,-9.636604983505606,-1.0678538340486585,-1.4717036608949303
1667915997897843500,2.144843505859375,-9.640670333248377,-1.0828520812161266,-1.4336271743483842
1667915997907918300,2.15491845703125,-9.644651511839031,-1.0991044931631535,-1.3939317082978784
1667915997917993200,2.1649931640625,-9.648006082963944,-1.1170471962846815,-1.3559399774253367
1667915997928068400,2.175068359375,-9.650299746859073,-1.1369307312756776,-1.3226828738592564
1667915997938142200,2.18514208984375,-9.651007602867484,-1.1581911806430667,-1.2988551312871277
1667915997948217300,2.19521728515625,-9.649798811599611,-1.1800627476461232,-1.2881075273014604
1667915997958292200,2.205292236328125,-9.647520345273614,-1.2006925709597767,-1.2861064166121183
1667915997968367400,2.215367431640625,-9.645781977173685,-1.2185095288097858,-1.2823850580014287
1667915997978442500,2.2254423828125,-9.64562357174158,-1.2324741951458156,-1.270172349899262
1667915997988517400,2.235517333984375,-9.646990183919668,-1.2423784801751374,-1.2499844251342116
1667915997998591500,2.245591552734375,-9.649501289957762,-1.2499636746071279,-1.22274468216151
1667915998008666400,2.255666259765625,-9.652405779227614,-1.2586109453126788,-1.1905231321882457
1667915998018741200,2.2657412109375,-9.654565003088116,-1.2700259271658956,-1.1605156050026415
1667915998028816100,2.275816162109375,-9.654833298635483,-1.2835397809945046,-1.143288722000271
1667915998038891300,2.285891357421875,-9.653342767816781,-1.2963159681983292,-1.141458145572245
1667915998048966400,2.29596630859375,-9.651693247044086,-1.3054136130198835,-1.145029208992049
1667915998059040300,2.306040283203125,-9.650880761617422,-1.3099626546263694,-1.146682967548445
1667915998069115400,2.316115478515625,-9.650388009664416,-1.3111368129722774,-1.1494848001614213
1667915998079190300,2.326190185546875,-9.649085694894193,-1.3111489418014883,-1.160354569222033
1667915998089265400,2.336265380859375,-9.6455487529397,-1.3122611408270894,-1.1881675820380448
1667915998099340300,2.34634033203125,-9.638843117821216,-1.315543377368152,-1.2379160939387976
1667915998109415200,2.356415283203125,-9.630209729510545,-1.3191131986789404,-1.299762601520866
1667915998119489500,2.366489501953125,-9.622346741050482,-1.3208259939461946,-1.3550811686389148
1667915998129564200,2.376564208984375,-9.616424365264177,-1.3207459144473075,-1.3965657100632787
1667915998139639300,2.386639404296875,-9.6119229621917,-1.319671417083591,-1.4282104099966584
1667915998149714200,2.396714111328125,-9.607889176630973,-1.3178583763122558,-1.4567444305635988
1667915998159789300,2.406789306640625,-9.604135961577295,-1.3165347264930605,-1.482462516926974
1667915998169864400,2.416864501953125,-9.600893034133314,-1.317277946075797,-1.5026685618706046
1667915998179938300,2.426938232421875,-9.597941783112287,-1.3221120882339774,-1.5172051828756927
1667915998190013400,2.437013427734375,-9.594761399510503,-1.3332880006343126,-1.527507819572836
1667915998200088300,2.44708837890625,-9.591109306743741,-1.3514951268456876,-1.5344266590505837
1667915998210163500,2.45716357421875,-9.587177812513708,-1.3748523292966186,-1.5382427102074026
1667915998220238300,2.46723828125,-9.583938392201066,-1.3997953396342695,-1.5359290264375507
1667915998230313200,2.477313232421875,-9.58204571032226,-1.4224445399463177,-1.5269041545912623
1667915998240387300,2.48738720703125,-9.581725976848602,-1.4398063013747333,-1.5125710933342575
1667915998250462200,2.497462158203125,-9.58288625279963,-1.4506469904713333,-1.4947572042241692
1667915998260537300,2.507537353515625,-9.584995207777618,-1.45487264534235,-1.4770225178301333
1667915998270612200,2.5176123046875,-9.587165537554025,-1.4526846337787807,-1.4650436184838413
1667915998280687400,2.527687255859375,-9.588692308729886,-1.444720523031801,-1.462923849850893
1667915998290762500,2.537762451171875,-9.589685411420463,-1.4330353459350764,-1.4678981311321257
1667915998300837400,2.54783740234375,-9.590000468719005,-1.4209483100391924,-1.477560277968645
1667915998310911500,2.557911376953125,-9.588973463758826,-1.411079534714669,-1.493593713402748
1667915998320986400,2.567986328125,-9.585540566700697,-1.4062019918061792,-1.5199990513779222
1667915998331061200,2.578061279296875,-9.57939957972765,-1.4084890798300504,-1.5561632745623588
1667915998341140000,2.588139892578125,-9.571729483491183,-1.4186147525250912,-1.5937106226682662
1667915998351214800,2.59821484375,-9.563649637410045,-1.436061854149401,-1.62625709374696
1667915998361290000,2.6082900390625,-9.556174186962842,-1.4588824655055999,-1.6497230172693729
1667915998371363800,2.61836376953125,-9.550289805099368,-1.4852831273056566,-1.6602055405780671
1667915998381439000,2.62843896484375,-9.54635188112855,-1.5133485074475406,-1.6575044649258255
1667915998391513900,2.638513916015625,-9.54373906828165,-1.541269802943617,-1.6467903248183429
1667915998401589000,2.648589111328125,-9.541415593770147,-1.5669792676091194,-1.6359560654625296
1667915998411664100,2.6586640625,-9.538652558797597,-1.5887478856943547,-1.6310630327239632
1667915998421738800,2.66873876953125,-9.535815874066948,-1.6053347172275185,-1.6314114077702164
1667915998431813000,2.678813232421875,-9.533737314227222,-1.6150089928932487,-1.6340088769175112
1667915998441887700,2.6888876953125,-9.53269920335114,-1.6169810236185789,-1.638108421190828
1667915998451963000,2.698962890625,-9.532859362348914,-1.6126051466219127,-1.641488565148413
1667915998462038000,2.7090380859375,-9.534002102643251,-1.6065265573605894,-1.6408115426696837
1667915998472113000,2.71911279296875,-9.535563360610604,-1.6044753239192067,-1.6337297677151859
1667915998482188000,2.72918798828125,-9.536996023762226,-1.6093049360327423,-1.6205658963680267
1667915998492262000,2.739261962890625,-9.537586390870809,-1.6215429247066377,-1.6048147850066423
1667915998502337000,2.7493369140625,-9.536757538831234,-1.6399401666626334,-1.5909860200099646
1667915998512412000,2.759411865234375,-9.534175121122598,-1.6628136772498487,-1.5826992531798778
1667915998522487000,2.769487060546875,-9.529645660999417,-1.6880226450473068,-1.583292981289327
1667915998532562000,2.77956201171875,-9.52370633407831,-1.7132098394043742,-1.5919544266507029
1667915998542636800,2.78963671875,-9.517250289806723,-1.7372373423323033,-1.6044745932668447
1667915998552711000,2.7997109375,-9.511728311514855,-1.7578177735462783,-1.6147703618317841
1667915998562785800,2.809785888671875,-9.508428685447573,-1.7718721639923751,-1.6188389264449476
1667915998572861000,2.81986083984375,-9.507786880412697,-1.7776204983860253,-1.61630283209607
1667915998582936000,2.82993603515625,-9.50944283092618,-1.774939296478033,-1.6094941749945282
1667915998593011000,2.840010986328125,-9.512284191831945,-1.7655168036162852,-1.603054789596796
1667915998603086000,2.850086181640625,-9.515364037668704,-1.751452184037119,-1.6002023227751254
1667915998613160000,2.860159912109375,-9.517706801402568,-1.7361356647007167,-1.6029568821802735
1667915998623235000,2.870235107421875,-9.518961185377835,-1.7221553624041377,-1.610572617881
1667915998633310000,2.88031005859375,-9.518364388528466,-1.7134914328247308,-1.623291521939635
1667915998643384800,2.890384765625,-9.515870818147063,-1.7132427187606691,-1.638105352450907
1667915998653460000,2.9004599609375,-9.512204112333059,-1.7217153635516762,-1.6504697439834475
1667915998663534800,2.910534912109375,-9.508236377745867,-1.7371853198841214,-1.6571085974760353
1667915998673609000,2.92060888671875,-9.504356905964016,-1.7564529149338601,-1.6590519866287707
1667915998683683800,2.930683837890625,-9.500681432321667,-1.7757694636918604,-1.6595424004942179
1667915998693759000,2.940759033203125,-9.497433244180678,-1.7926394960805774,-1.6599973046548664
1667915998703834000,2.950834228515625,-9.495431841230392,-1.8041941786654292,-1.6589267528139053
1667915998713909000,2.960908935546875,-9.495216152653098,-1.808602788887918,-1.6553567853726445
1667915998723984100,2.970984130859375,-9.496660506242513,-1.8050968265935778,-1.6508942530058324
1667915998734058000,2.98105810546875,-9.498899225080013,-1.7952559621892867,-1.6487445276260375
1667915998744133000,2.991133056640625,-9.50153600332439,-1.781038344005495,-1.6489686917707322
1667915998754207700,3.001207763671875,-9.504137710255383,-1.76578319946751,-1.65038118891716
1667915998764283000,3.011282958984375,-9.505772033458948,-1.7534974261291325,-1.65406455360502
1667915998774358000,3.02135791015625,-9.505799505987763,-1.7477603437818585,-1.6599670556470751
1667915998784433000,3.031432861328125,-9.504331771522759,-1.7494596950456498,-1.6665699610434472
1667915998794507000,3.041507080078125,-9.502438505122065,-1.7569943283341825,-1.6694373331733048
1667915998804582000,3.051581787109375,-9.501084752425552,-1.768351004128903,-1.6651453350678085
1667915998814657000,3.061656982421875,-9.500354100063443,-1.7819544359371065,-1.654778547093272
1667915998824732000,3.07173193359375,-9.500332472753524,-1.7961442893311381,-1.6394903770685194
1667915998834807000,3.08180712890625,-9.50121685437262,-1.8091177526727318,-1.61998619678393
1667915998844882000,3.0918818359375,-9.502809676522016,-1.8190145850479602,-1.599430753880739
1667915998854956000,3.1019560546875,-9.504757887980341,-1.8251590791523455,-1.580743589067459
1667915998865031000,3.112031005859375,-9.506560553488134,-1.827547435593605,-1.567087988680601
1667915998875105800,3.122105712890625,-9.50783598025143,-1.825846476894617,-1.5613200728036463
1667915998885181000,3.132180908203125,-9.508309442982076,-1.8206705355614423,-1.5644786829650401
1667915998895256000,3.142256103515625,-9.507527352693677,-1.8135243170686066,-1.5774777191393077
1667915998905331000,3.1523310546875,-9.505739884755014,-1.8064368430256843,-1.5962698056317866
1667915998915405000,3.162405029296875,-9.503726206845045,-1.801602408606559,-1.6136298134945333
1667915998925480000,3.17247998046875,-9.501393379983305,-1.8008442837156355,-1.6281488988429307
1667915998935555000,3.18255517578125,-9.497904368823766,-1.8053095925614238,-1.643487922272086
1667915998945630000,3.1926298828125,-9.491945168158411,-1.816322715615481,-1.6656329724542795
1667915998955704800,3.202704833984375,-9.482505139639972,-1.8338383524313568,-1.6998589210525155
1667915998965779000,3.212779052734375,-9.469392560088634,-1.8567722149036823,-1.7473942869484425
1667915998975853800,3.222853759765625,-9.453680611693859,-1.883389442063868,-1.803095131382346
1667915998985929000,3.232928955078125,-9.43711643038392,-1.9112841418139634,-1.8596262891605495
1667915998996003800,3.24300390625,-9.421261274126172,-1.9380923615016041,-1.911549076360464
1667915999006079000,3.253078857421875,-9.407638406965136,-1.9621499673068523,-1.9536353830702602
1667915999016154000,3.263154052734375,-9.397477662956714,-1.9826237232759594,-1.9816655457682906
1667915999026228000,3.27322802734375,-9.391225032302737,-2.0003262609660624,-1.9934819480292498
1667915999036303000,3.28330322265625,-9.389007356253266,-2.01475182281211,-1.989396286150813
1667915999046378000,3.2933779296875,-9.389695923039316,-2.0242565871298313,-1.9764552637740969
1667915999056452900,3.303452880859375,-9.391494496893882,-2.0274784717857837,-1.964573102800548
1667915999066527700,3.31352783203125,-9.392519748288393,-2.024571206036955,-1.962669753397256
1667915999076603000,3.323602783203125,-9.391562301433085,-2.0165815224573014,-1.9754354192070662
1667915999086676700,3.3336767578125,-9.38875659636259,-2.004432234980166,-2.0009712808713314
1667915999096751900,3.343751953125,-9.385273430421949,-1.9888610102303326,-2.0325977144956586
1667915999106827000,3.353826904296875,-9.381619584089517,-1.970957981532067,-2.0666201033458114
1667915999116902000,3.36390185546875,-9.377276586449145,-1.952305157379806,-2.1037046562455592
1667915999126977000,3.37397705078125,-9.371651147782803,-1.9354392166443168,-2.1439720769651234
1667915999137052000,3.384052001953125,-9.364532840210199,-1.921973585871607,-2.1867621480301023
1667915999147126000,3.3941259765625,-9.355452292653919,-1.9126935702204704,-2.2332712396182117
1667915999157201200,3.404201171875,-9.344902257066964,-1.9073997015960513,-2.2814491412013767
1667915999167276000,3.414276123046875,-9.333862392136455,-1.9045612632997333,-2.328528141631931
1667915999177351000,3.424350830078125,-9.323565454527735,-1.9026877245128153,-2.3709273136831817
1667915999187425800,3.43442578125,-9.315727015987038,-1.901366851172596,-2.4025851653590795
1667915999197501000,3.4445009765625,-9.31167861737907,-1.9006779921256005,-2.418769115179777
1667915999207574800,3.45457470703125,-9.311709012517332,-1.9010320662602782,-2.4183735399909314
1667915999217650000,3.46464990234375,-9.315224327161907,-1.9032697621844707,-2.403028232951462
1667915999227725000,3.47472509765625,-9.320863209831714,-1.9079482753895223,-2.377314676632732
1667915999237800000,3.484800048828125,-9.327862274938822,-1.913857937824726,-2.3448922703251243
1667915999247875000,3.494875,-9.33498876581788,-1.9204668345704674,-2.3108815719127653
1667915999257949000,3.504948974609375,-9.341571066817641,-1.9256034668065607,-2.2797990359067914
1667915999268024000,3.515024169921875,-9.347303472989797,-1.9284053724847734,-2.2537860582500695
1667915999278099000,3.525098876953125,-9.35244726561904,-1.927523182822764,-2.233107281228155
1667915999288173800,3.535173828125,-9.356593279382587,-1.9229012221105395,-2.21968358990103
1667915999298249000,3.5452490234375,-9.3594942615211,-1.9152055530413985,-2.2141011135935784
1667915999308323800,3.55532373046875,-9.361859237086772,-1.9059630929216742,-2.2120767681591214
1667915999318398000,3.56539794921875,-9.363695804864168,-1.8962180901072918,-2.2126780950531364
1667915999328472800,3.575472900390625,-9.365295641276239,-1.8855121333062648,-2.21505403040424
1667915999338548000,3.5855478515625,-9.366904830038546,-1.8734354726739226,-2.218495549160242
1667915999348619500,3.59561962890625,-9.368669501623511,-1.8606625003404915,-2.221790499052405
1667915999358694400,3.6056943359375,-9.370858536100387,-1.8479592322424052,-2.22316120288372
1667915999368769300,3.615769287109375,-9.374035997092724,-1.835377836958319,-2.220184086769074
1667915999378843400,3.625843505859375,-9.378673593765496,-1.8232136441729963,-2.2106008503876624
1667915999388918300,3.635918212890625,-9.384018461924791,-1.812396774343401,-2.196770331825316
1667915999398993200,3.6459931640625,-9.389498939162491,-1.804106354251504,-2.180112480882555
1667915999409068300,3.656068359375,-9.394355147022008,-1.7989019174762069,-2.1634293493680654
1667915999419143400,3.666143310546875,-9.398334572046995,-1.7954409633673727,-2.1489714926876125
1667915999429217300,3.67621728515625,-9.40123555418551,-1.7925258065730332,-2.138692675257474
1667915999439292400,3.68629248046875,-9.402542545130848,-1.7888794128946959,-2.1359972986936566
1667915999449367300,3.6963671875,-9.402253791317342,-1.7830957149267195,-2.1420956155687567
1667915999459442400,3.7064423828125,-9.401132093811034,-1.7741900855459272,-2.1543796353414653
1667915999469517600,3.716517578125,-9.400197443309425,-1.7618538971945643,-2.1685350019440053
1667915999479592400,3.726592529296875,-9.400495549473167,-1.7469912591055035,-2.179241251005977
1667915999489666600,3.73666650390625,-9.402740698051453,-1.730533460779488,-2.1826833542838693
1667915999499741400,3.746741455078125,-9.40712519674599,-1.7125528368003666,-2.1779683084607124
1667915999509816300,3.75681640625,-9.413139926990866,-1.6936831550270317,-2.1667061790816486
1667915999519891200,3.76689111328125,-9.419764898088573,-1.675138175163418,-2.152283101453632
1667915999529966300,3.77696630859375,-9.4257030559659,-1.6589399045564233,-2.1387911671958864
1667915999540041500,3.78704150390625,-9.430243037483095,-1.646790032557398,-2.128141909018159
1667915999550115300,3.797115234375,-9.432952296441792,-1.6401472335420548,-2.1212520033739506
1667915999560190500,3.8071904296875,-9.433732633164524,-1.6389368348389863,-2.1187164935469625
1667915999570265300,3.817265380859375,-9.433190196850896,-1.6423247237116096,-2.1185085498847065
1667915999580340500,3.827340576171875,-9.432098309960962,-1.6491532545574008,-2.118065043900907
1667915999590415400,3.837415283203125,-9.43079365710318,-1.658039010193944,-2.116936039870977
1667915999600489500,3.847489501953125,-9.429662022724747,-1.6673068970158695,-2.114698782338202
1667915999610564400,3.857564453125,-9.429255195489525,-1.6753217150367796,-2.110172244824469
1667915999620639200,3.86763916015625,-9.43013899258673,-1.6807063306845724,-2.1019236180476844
1667915999630714400,3.87771435546875,-9.432698029419779,-1.682772469434142,-2.0887474717408416
1667915999640789200,3.887789306640625,-9.436486900308727,-1.6813329381503164,-2.072732448746264
1667915999650864400,3.897864501953125,-9.440160035863519,-1.6774308161452411,-2.059124048501998
1667915999660938200,3.907938232421875,-9.442156178116798,-1.6730439793631433,-2.0535320737138387
1667915999671013400,3.918013427734375,-9.442078436705469,-1.6689866667963564,-2.057188404264301
1667915999681088500,3.928088623046875,-9.440910561969876,-1.665390834261477,-2.0654449220865962
1667915999691163400,3.938163330078125,-9.439757884803413,-1.6628016945511102,-2.072785640238225
1667915999701238300,3.94823828125,-9.439640395903586,-1.6612955277718602,-2.074528099991381
1667915999711312400,3.9583125,-9.44043593019545,-1.661750870323926,-2.0705409300513566
1667915999721387300,3.96838720703125,-9.44088133587539,-1.6654184529207645,-2.0655565657675266
1667915999731462100,3.978462158203125,-9.440017412522435,-1.673677016569674,-2.0628275791950523
1667915999741537300,3.988537353515625,-9.43776758776903,-1.685863567317277,-2.0631996273778377
1667915999751612400,3.9986123046875,-9.43508463229537,-1.6991706465274095,-2.0645522110305725
1667915999761687300,4.008687255859375,-9.433398871165513,-1.7100247796274721,-2.0632947583153842
1667915999771761400,4.018761474609375,-9.433882270768285,-1.7164942679025232,-2.0556994808807967
1667915999781836300,4.028836181640625,-9.437093634030223,-1.7185715125679968,-2.0391561962284146
1667915999791911400,4.038911376953125,-9.442669388335943,-1.717158284769207,-2.014385035326332
1667915999801986600,4.048986572265625,-9.449421200683712,-1.7134806191697716,-1.9856492085769772
1667915999812061200,4.059061279296875,-9.456059031262994,-1.7091010889112948,-1.9576285443596542
1667915999822135600,4.069135498046875,-9.460815870401262,-1.706018758856505,-1.9372256616696715
1667915999832210200,4.079210205078125,-9.462962234780191,-1.705215041258186,-1.9274254215367137
1667915999842285300,4.089285400390625,-9.463025947666168,-1.707705835160613,-1.9249075934968887
1667915999852360200,4.099360107421875,-9.462364268887043,-1.7138265099979937,-1.9227191435419022
1667915999862435300,4.109435302734375,-9.462439087688923,-1.722725563507527,-1.9143797697417437
1667915999872510500,4.119510498046875,-9.463297165822983,-1.7341750321522353,-1.8997439261458813
1667915999882584300,4.129584228515625,-9.464228309193253,-1.747416644910723,-1.8828958133280276
1667915999892659500,4.139659423828125,-9.464767822897434,-1.7613363030612468,-1.8671509855769572
1667915999902734300,4.149734375,-9.46531493538618,-1.773559240296483,-1.8527509965635836
1667915999912809500,4.1598095703125,-9.466057862707972,-1.782356002475321,-1.8404713607050478
1667915999922884400,4.16988427734375,-9.466861580306292,-1.7860615789949892,-1.8327309757113455
1667915999932958500,4.17995849609375,-9.467854098474978,-1.7835092641636727,-1.830086744812876
1667915999943033300,4.190033447265625,-9.468903899788856,-1.7742372856885193,-1.833665187821537
1667915999953108200,4.200108154296875,-9.468695225474239,-1.7604720874473452,-1.8479541176758705
1667915999963183400,4.210183349609375,-9.465873153790831,-1.745237108914554,-1.8766408445864915
1667915999973258200,4.22025830078125,-9.459574930429458,-1.7319025571756064,-1.920246323687583
1667915999983332400,4.230332275390625,-9.449943763253092,-1.7223967699445784,-1.975421829073131
1667915999993407200,4.2404072265625,-9.438100765246153,-1.7166921285621821,-2.0360759120002387
1667916000003482400,4.250482421875,-9.425582644456625,-1.7138212493009863,-2.0956142887704075
1667916000013557500,4.2605576171875,-9.414668451732396,-1.7131645389579235,-2.1446365322232244
1667916000023632400,4.27063232421875,-9.40764951288104,-1.7134262586340308,-2.1750151577435433
1667916000033707300,4.280707275390625,-9.405421315437554,-1.7154951738625763,-2.183003964540362
1667916000043781400,4.290781494140625,-9.407494030058384,-1.722383472071588,-2.168601783569902
1667916000053856300,4.300856201171875,-9.412190663442015,-1.736374588023126,-2.136831995952129
1667916000063931400,4.310931396484375,-9.417151500719784,-1.75820165829733,-2.09675191449821
1667916000074006300,4.32100634765625,-9.42044294348061,-1.7864271974369883,-2.0577461842775344
1667916000084081400,4.331081298828125,-9.421334923884272,-1.8176928349249064,-2.0260382098495957
1667916000094155300,4.3411552734375,-9.420456387484073,-1.8471816719986498,-2.003323543085903
1667916000104230400,4.35123046875,-9.418647876757383,-1.8710155520506202,-1.9896622436106204
1667916000114305300,4.36130517578125,-9.416052015045285,-1.8870570246607064,-1.9867967711769043
1667916000124380400,4.37138037109375,-9.412328026086092,-1.8956559261798858,-1.9962356306515634
1667916000134454300,4.381454345703125,-9.4071474085778,-1.897574327021837,-2.0187066979177293
1667916000144529400,4.391529296875,-9.400164710083603,-1.8945441655457018,-2.0537737735152244
1667916000154604500,4.4016044921875,-9.391194637164473,-1.8875452465690672,-2.1007193568244573
1667916000164679200,4.41167919921875,-9.380029100027679,-1.878517305982858,-2.157919353774935
1667916000174754300,4.42175439453125,-9.367162019670008,-1.868820672354847,-2.2212989161431786
1667916000184828200,4.431828125,-9.355029683327674,-1.8587179421439766,-2.280124614599347
1667916000194903300,4.4419033203125,-9.346481635212898,-1.848055532223731,-2.3234349101461467
1667916000204978400,4.451978515625,-9.343805109480023,-1.8372713956199584,-2.3426735713623463
1667916000215053300,4.46205322265625,-9.347509224694967,-1.8266933029823005,-2.33616214364171
1667916000225128400,4.47212841796875,-9.356257763817906,-1.8173957516744732,-2.3082240431413052
1667916000235202300,4.482202392578125,-9.367430315217375,-1.8106581139825284,-2.2678502394378186
1667916000245277400,4.49227734375,-9.378831999197601,-1.807342998085171,-2.222926809605956
1667916000255352300,4.502352294921875,-9.389637470850348,-1.807249474582821,-2.176912223536521
1667916000265427500,4.512427490234375,-9.400117363810539,-1.8100068104669451,-2.1288623322471976
1667916000275502300,4.52250244140625,-9.410423653769493,-1.8153848502434788,-2.0781457059666515
1667916000285576400,4.532576416015625,-9.42031434866488,-1.8227642929702996,-2.026227448811382
1667916000295651300,4.5426513671875,-9.428634433242678,-1.8324197178050874,-1.9782507688887416
1667916000305726200,4.552726318359375,-9.434578436338901,-1.8438149720445274,-1.9389321733266114
1667916000315801300,4.56280126953125,-9.437598076421022,-1.8561168197348712,-1.9123172842539846
1667916000325876200,4.572876220703125,-9.437673479744792,-1.8678909902893006,-1.9004441833697259
1667916000335951400,4.582951416015625,-9.435105090561509,-1.8778844149067997,-1.9033453116387127
1667916000346025500,4.593025390625,-9.430196275731921,-1.884692925877869,-1.9208641633249819
1667916000356100600,4.6031005859375,-9.424028985273837,-1.8878154418125748,-1.9478740430645642
1667916000366175500,4.613175537109375,-9.417219305258989,-1.8880141792550682,-1.9803439417757094
1667916000376250600,4.623250732421875,-9.409860174667834,-1.8867374373175203,-2.0162186804942785
1667916000386325500,4.633325439453125,-9.40190424722731,-1.8863111747294663,-2.0533891581118104
1667916000396399600,4.643399658203125,-9.393086734521388,-1.8889080593548715,-2.091012786324322
1667916000406474500,4.653474609375,-9.383673009487985,-1.8952274716347455,-2.127246567613631
1667916000416549400,4.66354931640625,-9.374109646850824,-1.9052254262968897,-2.1602242697164415
1667916000426624500,4.67362451171875,-9.364517642641067,-1.9181851533740757,-2.1901513520769775
1667916000436699400,4.683699462890625,-9.355825802141428,-1.9331465756624935,-2.2140124123968183
1667916000446773500,4.6937734375,-9.349485493203996,-1.9484582726933062,-2.227333812393248
1667916000456848400,4.703848388671875,-9.346054349711537,-1.9629016624569893,-2.229050991574675
1667916000466923500,4.713923583984375,-9.344763725379108,-1.9765075784832238,-2.22242981986925
1667916000476998700,4.72399853515625,-9.344130688172578,-1.9903532946147025,-2.212713750888407
1667916000487073500,4.734073486328125,-9.342264309778809,-2.0052496888428926,-2.2071377043217417
1667916000497147600,4.744147705078125,-9.33806627356708,-2.019912128184736,-2.211529217278957
1667916000507222500,4.754222412109375,-9.331306862434744,-2.0325008299924434,-2.2284596015527844
1667916000517297400,4.76429736328125,-9.322329775252937,-2.0423127605631946,-2.2568802248731252
1667916000527372500,4.77437255859375,-9.312750630524754,-2.048900906781852,-2.2902096630230546
1667916000537447400,4.784447509765625,-9.304581937116383,-2.052082459427416,-2.3203664624862372
1667916000547521500,4.794521484375,-9.299339360287785,-2.0524707280926404,-2.340947916613519
1667916000557596400,4.804596435546875,-9.29804522882402,-2.0515672033816577,-2.3468737995311617
1667916000567671600,4.814671630859375,-9.300624723923205,-2.0509093239948153,-2.3372062458671627
1667916000577746400,4.824746337890625,-9.305946795728802,-2.0523272279687226,-2.314669127627462
1667916000587821600,4.834821533203125,-9.312454277926683,-2.056328572564572,-2.2847528589218853
1667916000597896400,4.844896484375,-9.318938379248976,-2.0617335003480313,-2.25322550175786
1667916000607970600,4.854970458984375,-9.324791781452298,-2.0665081674039363,-2.224452119477093
1667916000618045700,4.865045654296875,-9.330516588839888,-2.068786049208045,-2.1981728920996186
1667916000628120300,4.875120361328125,-9.33657340466082,-2.067058787024021,-2.1739475285120307
1667916000638195500,4.885195556640625,-9.342174877929686,-2.0623102773226796,-2.1543049626700577
1667916000648270300,4.895270263671875,-9.34619989566207,-2.056953718725592,-2.1419316571787
1667916000658344400,4.905344482421875,-9.348295406636595,-2.0536434251338243,-2.135955797639489
1667916000668419300,4.91541943359375,-9.348868822610378,-2.054376269453019,-2.132738881419599
1667916000678494500,4.925494384765625,-9.34741044049561,-2.0600373639546334,-2.133669732528925
1667916000688569600,4.935569580078125,-9.342743617728352,-2.0716534213379023,-2.1428420500218865
1667916000698644500,4.94564453125,-9.333693465310335,-2.0903242195382714,-2.1640451431788503
1667916000708718600,4.955718505859375,-9.32046047424972,-2.1157441997379065,-2.196140071097761
1667916000718793500,4.96579345703125,-9.305759748724103,-2.1457440550737084,-2.2291246413327754
1667916000728868600,4.97586865234375,-9.293796339207887,-2.1769281517580152,-2.2487153308570385
1667916000738943500,4.985943603515625,-9.287495193237065,-2.206778369490057,-2.2456506825894116
1667916000749018400,4.996018310546875,-9.287661781975626,-2.233309087410569,-2.218569345048815
1667916000759093500,5.006093505859375,-9.292488179218768,-2.2564057392291725,-2.1745526547983287
1667916000769168400,5.01616845703125,-9.29893779374957,-2.2781677814431487,-2.123698227482289
1667916000779242500,5.026242431640625,-9.304065219765901,-2.3004921337150037,-2.076654006104171
1667916000789317400,5.0363173828125,-9.305721170279384,-2.3246463317625223,-2.0420459263205526
1667916000799392500,5.046392578125,-9.30343276708126,-2.3502238406114278,-2.023108293877542
1667916000809467600,5.056467529296875,-9.29789383765459,-2.375385608266294,-2.0191827909968794
1667916000819542500,5.06654248046875,-9.290353505277633,-2.3982692018561065,-2.026826729878783
1667916000829616600,5.07661669921875,-9.282263137802481,-2.4174945651993154,-2.041004308313131
1667916000839691500,5.08669140625,-9.275711231940985,-2.4325090328492225,-2.052916572163999
1667916000849766400,5.096766357421875,-9.272245601657032,-2.4436229859292506,-2.055371710231155
1667916000859841500,5.106841552734375,-9.272908449479937,-2.4508383241355416,-2.043756383500248
1667916000869916400,5.11691650390625,-9.27754487710893,-2.454750821404159,-2.017856656959653
1667916000879990500,5.126990478515625,-9.284441650885343,-2.456867667427659,-1.9832631902232765
1667916000890065400,5.1370654296875,-9.292025822404026,-2.4587714552223683,-1.945016461676359
1667916000900140500,5.147140625,-9.299428207615017,-2.460638710398972,-1.906902565728873
1667916000910215400,5.15721533203125,-9.305947380250691,-2.461367901456356,-1.8738707953512668
1667916000920290600,5.16729052734375,-9.311271205621956,-2.4597829703524705,-1.8493449875123797
1667916000930364400,5.177364501953125,-9.315398514685034,-2.4549162410989402,-1.8349714481145143
1667916000940439600,5.187439453125,-9.318005482313037,-2.44694847709015,-1.832375878663361
1667916000950514400,5.197514404296875,-9.319116658425331,-2.43553393362835,-1.8419078232489525
1667916000960589300,5.20758935546875,-9.318909737676382,-2.4212413505122066,-1.861690966605395
1667916000970664400,5.21766455078125,-9.317972164565324,-2.4057011054225264,-1.886368604005128
1667916000980738300,5.22773828125,-9.31723391341865,-2.3907594107478856,-1.9088741580627857
1667916000990813400,5.2378134765625,-9.31779271634519,-2.3773433182053267,-1.922851830010861
1667916001000888600,5.247888671875,-9.320209129837155,-2.3658028102763,-1.9253738958343862
1667916001010963500,5.25796337890625,-9.324290846192836,-2.3557418733805418,-1.9179330783091484
1667916001021038600,5.26803857421875,-9.329348714104293,-2.345308449910581,-1.9060862809099255
1667916001031112400,5.278112548828125,-9.333391267493367,-2.3332523936748504,-1.9010859884046016
1667916001041187600,5.2881875,-9.334574339798092,-2.319169069395214,-1.9124746667727828
1667916001051262500,5.298262451171875,-9.332382382711767,-2.3037260010696947,-1.941615859452635
1667916001061337300,5.30833740234375,-9.327821942928432,-2.2885155724562702,-1.981114926148206
1667916001071412500,5.31841259765625,-9.32301717299521,-2.2746330314457417,-2.019350841040164
1667916001081486300,5.328486328125,-9.31989816419184,-2.262898608379811,-2.0467456284441052
1667916001091561500,5.3385615234375,-9.319462695384026,-2.2535705158032475,-2.0589852245531977
1667916001101636400,5.34863623046875,-9.321666342908143,-2.2468397462435066,-2.056363205486536
1667916001111711500,5.35871142578125,-9.325044879430532,-2.243393989703804,-2.044775643545389
1667916001121786600,5.36878662109375,-9.32773484916687,-2.244501512554288,-2.0312470305390655
1667916001131860500,5.378860595703125,-9.32907749594748,-2.2505470763288438,-2.018349555043131
1667916001141935600,5.388935546875,-9.329962462088465,-2.260110877357423,-2.0035178966142237
1667916001152010500,5.399010498046875,-9.331702583754062,-2.2702239828318356,-1.9838842447310685
1667916001162085600,5.409085693359375,-9.334947849285602,-2.278348398707062,-1.9591494703166186
1667916001172160500,5.419160400390625,-9.339366834771633,-2.2837067108698186,-1.93165648323521
1667916001182234600,5.429234619140625,-9.343627414825558,-2.2877608085662127,-1.9060859886489807
1667916001192309500,5.4393095703125,-9.345268167769909,-2.2941014097645875,-1.8903557739451526
1667916001202384400,5.44938427734375,-9.342220470637082,-2.3067168534487483,-1.8900686275668441
1667916001212459500,5.45945947265625,-9.334177449434995,-2.3263912757337093,-1.905629330922663
1667916001222534400,5.469534423828125,-9.322793885633349,-2.349756369230151,-1.9324960027992724
1667916001232608500,5.4796083984375,-9.310718832436203,-2.3724833109535277,-1.9627095008857547
1667916001242683400,5.489683349609375,-9.300814109015464,-2.390767886315286,-1.9873285399660467
1667916001252758500,5.499758544921875,-9.29526407367289,-2.401649199683219,-2.0001319074377415
1667916001262833700,5.509833740234375,-9.294099706068634,-2.405443185138702,-2.0009844326138495
1667916001272907500,5.519907470703125,-9.295221988096833,-2.405820494018495,-1.9953100402392445
1667916001282982700,5.529982666015625,-9.296277050107717,-2.407700608676672,-1.9881145757772027
1667916001293057500,5.5400576171875,-9.296225612181425,-2.414126403940469,-1.9805480860456823
1667916001303132400,5.55013232421875,-9.297179551905392,-2.4239156842879948,-1.9640430875770747
1667916001313207300,5.560207275390625,-9.30117651258707,-2.4338763756796715,-1.9325493404217062
1667916001323281400,5.570281494140625,-9.308060426881909,-2.4418008850686252,-1.888917265574634
1667916001333356300,5.580356201171875,-9.31626360708177,-2.4467608455635608,-1.8414611023947596
1667916001343434500,5.5904345703125,-9.324187970340251,-2.4485540125906464,-1.7984676177121697
1667916001353509600,5.600509521484375,-9.331229705545306,-2.4465438418120145,-1.7643593041442334
1667916001363584800,5.610584716796875,-9.336683294776082,-2.440403585491329,-1.743890370480716
1667916001373658600,5.62065869140625,-9.339899334213136,-2.4300012878119945,-1.7411952861778437
1667916001383733800,5.630733642578125,-9.339729238343239,-2.4164551391489804,-1.7608493963271379
1667916001393808600,5.64080859375,-9.334866600742936,-2.4007240476623175,-1.80753121413365
1667916001403883800,5.6508837890625,-9.32489641087055,-2.3843474978789687,-1.879248250605911
1667916001413959000,5.660958984375,-9.311298678150772,-2.368064325467497,-1.9652917724639176
1667916001424032800,5.67103271484375,-9.297235666006802,-2.3508728060394524,-2.0506549108423293
1667916001434108000,5.68110791015625,-9.28642376461327,-2.331721530845761,-2.120328604918718
1667916001444182500,5.6911826171875,-9.281243147104979,-2.311242660310119,-2.164963719328493
1667916001454257700,5.701257568359375,-9.2823017162472,-2.292021973142028,-2.1808016321904957
1667916001464332500,5.71133251953125,-9.288318784579634,-2.2787454352006313,-2.1690635558627545
1667916001474406700,5.72140673828125,-9.29599238794744,-2.276112164087593,-2.1387430902704594
1667916001484481500,5.7314814453125,-9.302219884160161,-2.2861321844510734,-2.1006405924998224
1667916001494556700,5.741556640625,-9.305816447347402,-2.308085073062032,-2.0603164731569588
1667916001504631800,5.7516318359375,-9.307004195827245,-2.338371490254253,-2.0204156937927005
1667916001514706700,5.761706787109375,-9.306660496956109,-2.371820170869678,-1.9826566026322543
1667916001524780800,5.77178076171875,-9.305890097105502,-2.404085633049905,-1.947092391167581
1667916001534855700,5.781855712890625,-9.305669147831201,-2.429914924702793,-1.9158343524642287
1667916001544930800,5.791930908203125,-9.30578429864347,-2.445975978796184,-1.8947186453297733
1667916001555005700,5.802005615234375,-9.305360520273446,-2.451594549330324,-1.889532767124474
1667916001565079800,5.812079833984375,-9.303426337340474,-2.448124827393144,-1.9035050322450697
1667916001575154700,5.82215478515625,-9.299016119682788,-2.4383713490113617,-1.9372734463341532
1667916001585229600,5.8322294921875,-9.29179552077949,-2.425763650242239,-1.9871053987346587
1667916001595304700,5.8423046875,-9.282112331154941,-2.4129046070605513,-2.04711037010327
1667916001605379600,5.852379638671875,-9.270633490285277,-2.4010073946483432,-2.112084946577996
1667916001615453700,5.86245361328125,-9.259054111650586,-2.3908466506399213,-2.1735104522690176
1667916001625528600,5.872528564453125,-9.249338773322105,-2.3819641098737714,-2.224041054458171
1667916001635603700,5.882603759765625,-9.243608120715617,-2.3733286757364866,-2.256856843997538
1667916001645678800,5.892678955078125,-9.244341111165285,-2.3641452523276207,-2.2634835686609147
1667916001655753700,5.902753662109375,-9.252608588773011,-2.3551048906512557,-2.23899590087533
1667916001665827800,5.912827880859375,-9.267557736101747,-2.3483158150330183,-2.18361391313225
1667916001675902700,5.92290283203125,-9.28651670359373,-2.344973957259208,-2.1052540776446462
1667916001685977600,5.9329775390625,-9.305542891103029,-2.3447150140620767,-2.019795077676326
1667916001696052700,5.943052734375,-9.321118645897506,-2.346805264339596,-1.9441293035782872
1667916001706127600,5.953127685546875,-9.331648223218322,-2.3496374190256,-1.8894255073577164
1667916001716201700,5.96320166015625,-9.337017641296983,-2.3508333508118984,-1.8612009911313652
1667916001726276600,5.973276611328125,-9.33745077201724,-2.3487553754940627,-1.8616512191168963
1667916001736351700,5.983351806640625,-9.333406465062499,-2.3429016810297965,-1.8891069429278373
1667916001746426600,5.993426513671875,-9.325545230168103,-2.3339491437673567,-1.938367525181174
1667916001756500700,6.003500732421875,-9.31518341062963,-2.3245948938362297,-1.998500360713154
1667916001766575600,6.01357568359375,-9.304446912559866,-2.31723240224421,-2.0562296422347424
1667916001776650800,6.023650634765625,-9.29610169354081,-2.313196863117814,-2.098092515452206
1667916001786725600,6.0337255859375,-9.291548852542043,-2.312443414402008,-2.1189878578342496
1667916001796800500,6.043800537109375,-9.289847893843055,-2.314415298996866,-2.124286110372841
1667916001806875000,6.053875,-9.28924116012156,-2.3187197181925177,-2.1222434986293313
1667916001816949500,6.063949462890625,-9.28821473968327,-2.325533782121539,-2.1192789497353135
1667916001827024600,6.074024658203125,-9.286649974584579,-2.3352101036138833,-2.115492416933924
1667916001837099800,6.084099853515625,-9.285556334128975,-2.347563827621937,-2.106603154166043
1667916001847174700,6.094174560546875,-9.285387991824745,-2.3615961523666975,-2.091605053129047
1667916001857248800,6.104248779296875,-9.285078195223212,-2.3774188676595687,-2.074990749067068
1667916001867323600,6.11432373046875,-9.283725611570476,-2.3955049978397787,-2.0601889012545347
1667916001877398800,6.124398681640625,-9.28168621469736,-2.415229689007252,-2.046301245677471
1667916001887473700,6.1344736328125,-9.280185747006534,-2.4347965592645107,-2.029853676484525
1667916001897548800,6.144548828125,-9.280224909973144,-2.4520620207116006,-2.0087816623613235
1667916001907622700,6.15462255859375,-9.281812471425532,-2.4650448364034294,-1.985421391170472
1667916001917697800,6.16469775390625,-9.283746654358506,-2.473024144719541,-1.9663620320439337
1667916001927772700,6.174772705078125,-9.285147168806194,-2.477066113586724,-1.9546280473694204
1667916001937847600,6.18484765625,-9.285298559975624,-2.477929452417791,-1.952812960771471
1667916001947921700,6.194921630859375,-9.284154066115617,-2.477878891274333,-1.9583106814049183
1667916001957996500,6.20499658203125,-9.28211642280817,-2.4777511732414363,-1.9681078527979552
1667916001968071700,6.21507177734375,-9.27969182600975,-2.477702950185537,-1.9795694502718746
1667916001978146800,6.225146728515625,-9.277972162610292,-2.4773607126191255,-1.9880387340620158
1667916001988221700,6.2352216796875,-9.277569427028299,-2.4773925690621135,-1.98987763992697
1667916001998295800,6.2452958984375,-9.278676511487363,-2.4791864667415617,-1.9824682404533027
1667916002008370700,6.25537060546875,-9.280730521407722,-2.484171561677754,-1.9665487867876885
1667916002018445800,6.26544580078125,-9.282976254507899,-2.492984982730448,-1.9446745163708925
1667916002028520700,6.275520751953125,-9.284860753080249,-2.504462362295389,-1.9207851067394017
1667916002038595600,6.285595703125,-9.285594328051804,-2.516327572134137,-1.9016360235027967
1667916002048669700,6.295669677734375,-9.284488997158407,-2.526517834497988,-1.893502401407808
1667916002058744600,6.30574462890625,-9.28181773212254,-2.533686703214049,-1.8970174237914383
1667916002068819700,6.31581982421875,-9.278996244961023,-2.537092420004308,-1.906246147646755
1667916002078894600,6.32589453125,-9.277821940484642,-2.5348057703718543,-1.9149829963319003
1667916002088968700,6.33596875,-9.28047333177626,-2.5264286949098107,-1.9132048807434736
1667916002099043600,6.346043701171875,-9.28741336017251,-2.5126412848368287,-1.8976207965120673
1667916002109118700,6.35611865234375,-9.296762203276156,-2.4953975968301294,-1.8744576553285122
1667916002119193900,6.36619384765625,-9.304977073913813,-2.478554014056921,-1.8559509616486727
1667916002129268700,6.376268798828125,-9.308869989699124,-2.4660090052604673,-1.8531385345764457
1667916002139342800,6.3863427734375,-9.308228769186139,-2.459737962166965,-1.864659314891696
1667916002149417700,6.396417724609375,-9.304470293435454,-2.4576573565006257,-1.8860367417022585
1667916002159492600,6.40649267578125,-9.298604031750559,-2.457734513390064,-1.914651572420448
1667916002169567500,6.4165673828125,-9.291344269880652,-2.45869371381104,-1.9483675256699322
1667916002179641600,6.4266416015625,-9.283193696650862,-2.4602128862023354,-1.9849565501376984
1667916002189716500,6.436716552734375,-9.275384484204649,-2.462837389487028,-2.017933229327202
1667916002199791600,6.44679150390625,-9.269783010935782,-2.4669948014274237,-2.0384891106218097
1667916002209866800,6.45686669921875,-9.267381210491061,-2.473534724590182,-2.0414831778712568
1667916002219941600,6.466941650390625,-9.268174406695366,-2.4830644772186874,-2.0262556519925594
1667916002230015700,6.477015625,-9.271047916305065,-2.495450203800201,-1.9976941588968038
1667916002240090600,6.487090576171875,-9.274968889141082,-2.5096798046827313,-1.9613386509239672
1667916002250165800,6.497165771484375,-9.279585443025827,-2.5240862234368917,-1.9205898764282463
1667916002260241000,6.507240966796875,-9.28497005867362,-2.5368752701222896,-1.8772258048675954
1667916002270314800,6.517314697265625,-9.29101167692542,-2.5464111602306363,-1.8339238387577235
1667916002280390000,6.527389892578125,-9.296931130102276,-2.5509973189771173,-1.7971825463376938
1667916002290464500,6.537464599609375,-9.301817148578166,-2.550056238734722,-1.7730745255194604
1667916002300539600,6.54753955078125,-9.304045930543541,-2.5447215997084975,-1.7690408860892057
1667916002310614500,6.557614501953125,-9.302899098595976,-2.537057640951872,-1.7859999119356273
1667916002320688600,6.567688720703125,-9.299248174872995,-2.5288074067398902,-1.8164526256054638
1667916002330763500,6.577763427734375,-9.294822759646177,-2.520831605555117,-1.8498802634328602
1667916002340838700,6.587838623046875,-9.291352453187107,-2.512439332523942,-1.8785102917201817
1667916002350910000,6.597909912109375,-9.289301365876197,-2.504328799043596,-1.8993672017879784
1667916002360985000,6.607985107421875,-9.288930194476245,-2.496712771081924,-1.9111724981330334
1667916002371059000,6.618058837890625,-9.289320655098557,-2.490877489057183,-1.9168803543858228
1667916002381134000,6.628134033203125,-9.289550372201203,-2.487297292482853,-1.9204148121222853
1667916002391209000,6.638208984375,-9.289468539136648,-2.486580960907042,-1.9217380235500632
1667916002401284000,6.6482841796875,-9.289704101458192,-2.4882252209827302,-1.9184686464905738
1667916002411358000,6.65835791015625,-9.292146233913302,-2.491202190966904,-1.902713589606434
1667916002421433000,6.66843310546875,-9.298108941709994,-2.4948566218212247,-1.8684885177910326
1667916002431507700,6.6785078125,-9.307578196322918,-2.498186643026769,-1.8161589033558965
1667916002441582800,6.688582763671875,-9.318850700965523,-2.5016069728642703,-1.7525326727502046
1667916002451658000,6.698657958984375,-9.329690659409762,-2.505417471063137,-1.6882346803627908
1667916002461731800,6.70873193359375,-9.338263841965794,-2.5094965570703147,-1.633901763281226
1667916002471807000,6.718806884765625,-9.343519862797855,-2.5128856149867174,-1.5982568877957761
1667916002481881900,6.7288818359375,-9.345949720293284,-2.5148069384381175,-1.5809332664206623
1667916002491957000,6.73895703125,-9.347719652575254,-2.51399971370846,-1.5717263160057364
1667916002502030800,6.74903076171875,-9.350677333337067,-2.5097984626263377,-1.560809492933005
1667916002512106000,6.75910595703125,-9.355647522965073,-2.502414489854872,-1.5427780155494808
1667916002522181000,6.76918115234375,-9.362247359621524,-2.4934447091966865,-1.5170494077920913
1667916002532256000,6.779256103515625,-9.369272143691777,-2.4849574513584374,-1.4873166789598762
1667916002542331000,6.789330810546875,-9.375127883982659,-2.479636840857565,-1.4590278653256594
1667916002552405000,6.799405029296875,-9.378782314836979,-2.479592417193949,-1.4354242868982254
1667916002562479900,6.80947998046875,-9.380013317936658,-2.4857287279918787,-1.4166473979748784
1667916002572554800,6.8195546875,-9.378973453494906,-2.497306060799956,-1.4031041719213126
1667916002582630000,6.8296298828125,-9.376291667065024,-2.511292500576377,-1.3960454855814575
1667916002592703700,6.839703857421875,-9.373405882495641,-2.523721189516783,-1.3930084559731184
1667916002602779000,6.84977880859375,-9.371963282471894,-2.5319351833716035,-1.3878016811102627
1667916002612854000,6.85985400390625,-9.372280677857994,-2.5370018191114068,-1.3763573270320892
1667916002622929000,6.869928955078125,-9.373174996349215,-2.542686294488609,-1.3596778487794101
1667916002633004000,6.880004150390625,-9.373082057368755,-2.5529554673075676,-1.3409465525634585
1667916002643078000,6.890077880859375,-9.37055633828342,-2.57074305293262,-1.3245154961138963
1667916002653153000,6.900153076171875,-9.365140158453583,-2.5969433698549866,-1.311647538973391
1667916002663228200,6.910228271484375,-9.357560078588127,-2.6306609305396673,-1.2984895128451286
1667916002673302800,6.920302734375,-9.349103800410031,-2.6679312152698635,-1.2832704625338316
1667916002683377200,6.930377197265625,-9.341115724265574,-2.7035642541870475,-1.266759618846327
1667916002693451800,6.94045166015625,-9.334832113951444,-2.7322879521071908,-1.251358636096865
1667916002703527000,6.95052685546875,-9.331097603598236,-2.750428588953614,-1.2394117393240331
1667916002713601800,6.960601806640625,-9.329700011759996,-2.7582272800058125,-1.2325861310876904
1667916002723677000,6.970677001953125,-9.329441653084755,-2.758248907315731,-1.2344906495347618
1667916002733750800,6.980750732421875,-9.328558440509438,-2.7550135786563157,-1.2483093315288423
1667916002743826000,6.990825927734375,-9.325704804643989,-2.753192792969942,-1.27339818007797
1667916002753901000,7.000901123046875,-9.320901203754543,-2.755824602778256,-1.3025420031063257
1667916002763976000,7.010975830078125,-9.315465150180458,-2.7651056413426995,-1.3216215282380581
1667916002774050000,7.021050048828125,-9.311180604729056,-2.782042455357313,-1.316259708943963
1667916002784125000,7.031125,-9.308760684105753,-2.8059295269012448,-1.282232643918693
1667916002794200000,7.041199951171875,-9.306986075648664,-2.83454830314219,-1.2311514221094548
1667916002804275000,7.05127490234375,-9.304367417582869,-2.8647485033556817,-1.1799789418201894
1667916002814349800,7.061349853515625,-9.300885420686006,-2.893245114521682,-1.137124646412581
1667916002824424000,7.071423828125,-9.29798911472261,-2.9170795790955424,-1.099285256557539
1667916002834498800,7.081498779296875,-9.29690307305157,-2.9347289252936837,-1.0608218165200203
1667916002844574000,7.091573974609375,-9.297794468933343,-2.945368684990704,-1.022841995280981
1667916002854648800,7.10164892578125,-9.299576091653108,-2.949809297786653,-0.9934276847481727
1667916002864723000,7.111722900390625,-9.300126711273192,-2.9502579183369875,-0.9869191796369851
1667916002874797800,7.1217978515625,-9.29720293278098,-2.949397209854424,-1.0165927986931056
1667916002884873000,7.131873046875,-9.290084625208378,-2.9492879042610523,-1.080004144439101
1667916002894948000,7.141947998046875,-9.278798676562309,-2.9520033006995914,-1.166170123632997
1667916002905023000,7.15202294921875,-9.264506531837583,-2.958382188081741,-1.259872928072512
1667916002915097000,7.16209716796875,-9.24989056198597,-2.966972906294465,-1.3442409179337322
1667916002925172000,7.172171875,-9.238235780027509,-2.974669598276913,-1.4059588307000697
1667916002935246800,7.182246826171875,-9.232071996700762,-2.9786019692897794,-1.4377631051093338
1667916002945322000,7.192322021484375,-9.232240339004992,-2.9785572533652185,-1.436772340506315
1667916002955395800,7.202395751953125,-9.237191823932529,-2.977262245118618,-1.4073305574446915
1667916002965471000,7.212470947265625,-9.244159909379482,-2.9780048801794647,-1.359181881956011
1667916002975545900,7.2225458984375,-9.250175808668136,-2.9833745905190705,-1.3054143436722456
1667916002985621000,7.23262109375,-9.253251562851666,-2.993789601549506,-1.2589426614850758
1667916002995695900,7.24269580078125,-9.252509804573654,-3.008523060300946,-1.228914749098569
1667916003005770000,7.25277001953125,-9.248680601674318,-3.024657033500075,-1.2180883807882665
1667916003015844900,7.262844970703125,-9.243185511389374,-3.0386031412661074,-1.2250701294343918
1667916003025920000,7.272919921875,-9.23791663107574,-3.04720584217757,-1.243307869979739
1667916003035995000,7.282994873046875,-9.234292595359683,-3.0491610678985714,-1.2652446842387317
1667916003046069000,7.293069091796875,-9.232142723849416,-3.045079059281945,-1.2905128348775208
1667916003056144000,7.303143798828125,-9.230789555674791,-3.036495063070953,-1.3200786827102302
1667916003066218800,7.31321875,-9.229519389608502,-3.0254008376047015,-1.3539973189249634
1667916003076294000,7.3232939453125,-9.228642022252082,-3.012007103024423,-1.3893750679068266
1667916003086369000,7.333369140625,-9.228790490812063,-2.996070698224008,-1.4224515542089937
1667916003096443000,7.34344287109375,-9.230901783877611,-2.977407498808205,-1.447717659021169
1667916003106518000,7.35351806640625,-9.235293881356716,-2.9566745073810217,-1.4621251006886362
1667916003116593000,7.363593017578125,-9.240755069372057,-2.937140078088641,-1.4669813085481525
1667916003126668000,7.37366796875,-9.245957898712158,-2.9224975124910473,-1.4634380829833447
1667916003136742000,7.383741943359375,-9.249493087100982,-2.91525587079972,-1.4555219030313193
1667916003146817000,7.393817138671875,-9.24962694261372,-2.9168735351294277,-1.451424258454144
1667916003156892000,7.403891845703125,-9.245063580220938,-2.928208291353285,-1.4576628605827688
1667916003166967000,7.413967041015625,-9.236766876518725,-2.9476556268841025,-1.4710012117139994
1667916003177041200,7.424041259765625,-9.227393483495712,-2.9711382092803715,-1.482541865773499
1667916003187116000,7.434115966796875,-9.219809311977029,-2.9931796529576182,-1.4853874644629657
1667916003197191000,7.44419091796875,-9.215856190437078,-3.010432985575497,-1.475017169357091
1667916003207265800,7.454265869140625,-9.21581352033913,-3.0216815248206257,-1.4521040574118493
1667916003217341000,7.4643408203125,-9.218335732293129,-3.027193858501315,-1.4243486200019717
1667916003227414800,7.474414794921875,-9.221482798147202,-3.0287931103914976,-1.4003772311754523
1667916003237490000,7.484489990234375,-9.223549667549133,-3.029703795495629,-1.3847041534863411
1667916003247565000,7.49456494140625,-9.223003139582277,-3.0343679879143832,-1.3781162995286285
1667916003257640000,7.504639892578125,-9.218693459689616,-3.0454043457135556,-1.3825995824225246
1667916003267714000,7.514714111328125,-9.210302063441276,-3.0631106827959416,-1.3993125245533882
1667916003277789000,7.524788818359375,-9.198356189581752,-3.0857933469861742,-1.4277626662291585
1667916003287864000,7.534864013671875,-9.184282656043768,-3.1109608137294646,-1.4633032045572996
1667916003297939000,7.54493896484375,-9.170133719182013,-3.135992671394348,-1.4981922932393847
1667916003308013000,7.555012939453125,-9.157102972695231,-3.1603236873134968,-1.5264990809217094
1667916003318088000,7.565087890625,-9.146457075518368,-3.1830735715210436,-1.542966962250322
1667916003328162800,7.575162841796875,-9.138365538999437,-3.203593504719436,-1.548432388049364
1667916003338238000,7.585238037109375,-9.131976714745164,-3.2221681490689513,-1.5475838083960114
1667916003348317200,7.595317138671875,-9.126170074293016,-3.239011439581215,-1.546676630423218
1667916003358391000,7.60539111328125,-9.119511200925707,-3.2547239724978803,-1.552954103257507
1667916003368466200,7.615466064453125,-9.111118635633588,-3.2710902931481596,-1.5677615040279924
1667916003378541000,7.625541015625,-9.101011667639016,-3.289294642880559,-1.5882408129550516
1667916003388616200,7.6356162109375,-9.08968246437311,-3.3103637343943118,-1.6092074670076368
1667916003398690300,7.645690185546875,-9.077948187437652,-3.3354113741502163,-1.6236610859043896
1667916003408765200,7.65576513671875,-9.067041593497992,-3.3653476627305148,-1.6228316493429242
1667916003418840000,7.665840087890625,-9.057821345210074,-3.400033191664517,-1.6018828232079743
1667916003428915000,7.6759150390625,-9.05035232450366,-3.4372198897644877,-1.5642964582659302
1667916003438989000,7.685989013671875,-9.044656743210554,-3.473058680386841,-1.5173745480932295
1667916003449064000,7.69606396484375,-9.040936845904588,-3.5034687239587305,-1.4688605464234947
1667916003459139000,7.70613916015625,-9.039735068899393,-3.524210483214259,-1.4260130460828542
1667916003469214200,7.716214111328125,-9.040608344602584,-3.5330551761880513,-1.398324682559818
1667916003479289000,7.7262890625,-9.042899085888266,-3.5293259265318513,-1.392918877993524
1667916003489363200,7.73636328125,-9.045774933585523,-3.514384085726738,-1.4118933353155851
1667916003499438000,7.74643798828125,-9.047826020896434,-3.4922082020148633,-1.4531719789043067
1667916003509513200,7.75651318359375,-9.047745356875657,-3.4676153202891347,-1.5113989808149635
1667916003519588000,7.766588134765625,-9.044414166626334,-3.446355674639344,-1.578475644135475
1667916003529662200,7.776662109375,-9.038122957527637,-3.431085332532227,-1.6463197846971451
1667916003539737000,7.786737060546875,-9.030797729206085,-3.422394368815422,-1.7036134512804448
1667916003549812000,7.79681201171875,-9.025348231628536,-3.4178915044382214,-1.7411176908969879
1667916003559887000,7.80688720703125,-9.024721039640903,-3.4145226125270125,-1.7509493490815162
1667916003569962000,7.8169619140625,-9.030808835121988,-3.410192766629159,-1.7278500669144092
1667916003580036000,7.8270361328125,-9.042842387264967,-3.404279450932145,-1.6757899170704185
1667916003590111000,7.837111083984375,-9.05725260541141,-3.3975647557243702,-1.6103145514667032
1667916003600186000,7.84718603515625,-9.070745708712934,-3.3911063733652234,-1.546725145740062
1667916003610261200,7.85726123046875,-9.081700817969441,-3.38436099075824,-1.4963938655152915
1667916003620335000,7.867335205078125,-9.08933058219552,-3.3767364872291683,-1.4670065891198814
1667916003630410200,7.87741015625,-9.093168552923203,-3.3680282801166177,-1.4632354000180958
1667916003640485000,7.887485107421875,-9.093632663303612,-3.358883727413416,-1.4812579634428023
1667916003650560300,7.897560302734375,-9.09207257438004,-3.3491564063861965,-1.5125317842371762
1667916003660634000,7.907634033203125,-9.089714613077044,-3.338760392317176,-1.5492413663446902
1667916003670709200,7.917709228515625,-9.087583446267246,-3.3273025942355394,-1.5859585472367703
1667916003680784000,7.927783935546875,-9.086360041952133,-3.3149481395751237,-1.6185050183154641
1667916003690859000,7.93785888671875,-9.08647753085196,-3.301420549482107,-1.6452746595583856
1667916003700934100,7.94793408203125,-9.087864601296186,-3.2861896626025437,-1.6679497249640522
1667916003711008000,7.958008056640625,-9.091073626470566,-3.2679148779824376,-1.6862683487258852
1667916003721083100,7.968083251953125,-9.09833923355937,-3.2453760061770676,-1.690603601451218
1667916003731158000,7.978157958984375,-9.110784873634577,-3.219717833307385,-1.672542021190375
1667916003741233200,7.988233154296875,-9.126317373809218,-3.1948701000377535,-1.6350902424134313
1667916003751307000,7.99830712890625,-9.14108298126459,-3.1748473027065396,-1.5910156844958663
1667916003761382100,8.008382080078125,-9.152743608441948,-3.1621421349123118,-1.5487164656877517
1667916003771457300,8.018457275390626,-9.160399676153062,-3.1573069698408243,-1.5129020788542926
1667916003781532200,8.0285322265625,-9.16432181803286,-3.15947846866101,-1.4843462848469615
1667916003791606300,8.038606201171875,-9.165219059133529,-3.166260091625154,-1.4642191503584383
1667916003801681200,8.04868115234375,-9.163488874340057,-3.174965083867311,-1.4561783211134374
1667916003811756000,8.058756103515625,-9.159337015357613,-3.184201114246249,-1.4621189632087945
1667916003821831000,8.068830810546874,-9.153134653586148,-3.192257871712744,-1.4832405155621469
1667916003831906000,8.078906005859375,-9.146266521382332,-3.196575442650914,-1.5159459765948353
1667916003841980200,8.088980224609376,-9.140713563430308,-3.195222858998179,-1.5518667464122176
1667916003852055000,8.099054931640625,-9.138515176603198,-3.186733847594261,-1.5819772225156425
1667916003862130200,8.109130126953126,-9.140325440895557,-3.1707232085138557,-1.603542426983267
1667916003872205000,8.119205078125,-9.145847419187426,-3.148448832863569,-1.6158986352093516
1667916003882279200,8.129279052734375,-9.154918029871583,-3.123349462920427,-1.6132421293511985
1667916003892354000,8.13935400390625,-9.167200003817676,-3.0990269225686786,-1.5902390010349452
1667916003902429200,8.14942919921875,-9.180963740754127,-3.078427494393289,-1.5503478662818668
1667916003912504300,8.15950439453125,-9.193581814786791,-3.063863546989858,-1.503720847402513
1667916003922578200,8.169578125,-9.202883896139264,-3.0561753305748103,-1.4618832547567784
1667916003932653300,8.1796533203125,-9.207409264609216,-3.0553707361936566,-1.4348194528728722
1667916003942728000,8.18972802734375,-9.206429605922102,-3.062163757334649,-1.4266013673648237
1667916003952803000,8.199802978515624,-9.200600169116258,-3.0764518104061485,-1.4334513793900607
1667916003962877000,8.209876953125,-9.191673935338855,-3.0974609884262083,-1.4454226799517869
1667916003972952000,8.2199521484375,-9.18252499872148,-3.1217557639881965,-1.4512953713774681
1667916003983027200,8.230027099609375,-9.175348238959907,-3.1457515566036105,-1.4448586163282393
1667916003993102000,8.24010205078125,-9.171571643030642,-3.1662530773624775,-1.42390379884392
1667916004003177200,8.25017724609375,-9.171199887108802,-3.181541539648175,-1.391857678502798
1667916004013251000,8.2602509765625,-9.172927733814715,-3.1910835672363635,-1.3582213663607834
1667916004023326200,8.270326171875,-9.174955440250038,-3.1956118583157656,-1.3336581491209565
1667916004033401000,8.280401123046875,-9.176243726494908,-3.196412653304636,-1.3228304656364023
1667916004043476200,8.290476318359374,-9.176002318954467,-3.194991680590808,-1.3279272042535244
1667916004053550000,8.300550048828125,-9.173381907323002,-3.1928482388213273,-1.3509865928016602
1667916004063625200,8.310625244140626,-9.167848823115229,-3.191782070894539,-1.3904900434114038
1667916004073700000,8.3207001953125,-9.159470286348462,-3.193609870843589,-1.4406076808854937
1667916004083775000,8.33077490234375,-9.149819245427846,-3.198910899861157,-1.4893497922226786
1667916004093849000,8.34084912109375,-9.141292240101098,-3.2071397990241644,-1.5236197260931132
1667916004103924000,8.350924072265625,-9.135942695766687,-3.2172090653568506,-1.5344370343141256
1667916004113999000,8.3609990234375,-9.135082864066957,-3.2273993277207014,-1.5180717365771532
1667916004124074200,8.37107421875,-9.139292590716481,-3.2364854282349347,-1.4727110843718052
1667916004134149000,8.381149169921875,-9.1476682048738,-3.243433639937639,-1.403811297277361
1667916004144223200,8.39122314453125,-9.158089645645022,-3.2485800629153845,-1.321553577568382
1667916004154298000,8.401298095703124,-9.168953569486737,-3.2522505681216716,-1.2343171926639973
1667916004164373200,8.411373291015625,-9.178522192820907,-3.2546634744822978,-1.154245584822446
1667916004174448000,8.4214482421875,-9.185518919840455,-3.255347657354176,-1.0951435536429286
1667916004184522200,8.431522216796875,-9.189381440487503,-3.2531422562643884,-1.0689805730562656
1667916004194597000,8.44159716796875,-9.189836783039569,-3.247352566947043,-1.0825824704945086
1667916004204672000,8.451672119140625,-9.18754253462255,-3.237222802598774,-1.1312964517157524
1667916004214747100,8.4617470703125,-9.183562525075674,-3.2228710366412994,-1.2023564855840057
1667916004224821000,8.471821044921874,-9.179480224198102,-3.205298262810707,-1.278119217250496
1667916004234896100,8.481896240234375,-9.176875010135769,-3.1858570647597313,-1.3437491888940334
1667916004244971000,8.491970947265624,-9.176591517019272,-3.165778737848997,-1.3922647979989646
1667916004255046100,8.502046142578125,-9.179693574687837,-3.1458553092390296,-1.4167588955253363
1667916004265120000,8.5121201171875,-9.186502670180797,-3.1278800920873877,-1.4124154594935476
1667916004275195100,8.522195068359375,-9.1954856025815,-3.1144433951482173,-1.383355223095417
1667916004285270300,8.532270263671874,-9.204304284331203,-3.1082351881578565,-1.337924282132834
1667916004295345200,8.54234521484375,-9.210919318556785,-3.110945616160333,-1.2850539849497378
1667916004305420300,8.552420166015626,-9.21380042695105,-3.1224577747777102,-1.2355251071490347
1667916004315494100,8.562494140625,-9.21232860083282,-3.141162767508626,-1.1985327625773847
1667916004325569300,8.5725693359375,-9.20682883437276,-3.164198775181174,-1.1800577061448245
1667916004335644000,8.582643798828125,-9.198122380825877,-3.187975956609845,-1.183949525951594
1667916004345718800,8.59271875,-9.187423876678944,-3.208509626072645,-1.211234057914093
1667916004355793000,8.60279296875,-9.17689137674868,-3.221618698492646,-1.2554779079839586
1667916004365867800,8.61286767578125,-9.169108467787504,-3.2237928276613355,-1.3057530741073191
1667916004375943000,8.62294287109375,-9.166265937837958,-3.212887110504508,-1.3517800812669098
1667916004386018000,8.63301806640625,-9.168834911543131,-3.189391376365721,-1.3894728291928766
1667916004396092000,8.643091796875,-9.175380387663841,-3.1566406148865815,-1.4207014956712722
1667916004406167000,8.6531669921875,-9.184068136510252,-3.1190812840819357,-1.4472748836897313
1667916004416242000,8.663241943359376,-9.193712163168192,-3.0802301599010824,-1.4690890944823622
1667916004426317000,8.673317138671875,-9.204239986923337,-3.0424294215559957,-1.4818825250819325
1667916004436391000,8.683390869140625,-9.216023363697529,-3.0075574301391836,-1.479827199987322
1667916004446466000,8.693466064453125,-9.228499398911,-2.9778116956949234,-1.4621296307332814
1667916004456541000,8.703541015625,-9.240119694077968,-2.955473314897716,-1.4337871872156858
1667916004466615800,8.71361572265625,-9.248875247463584,-2.942945841757953,-1.402769825400412
1667916004476691000,8.72369091796875,-9.253239287891983,-2.941453849634528,-1.376880620253831
1667916004486764800,8.733764892578124,-9.252744197851419,-2.949874471977353,-1.362111797928065
1667916004496840000,8.74383984375,-9.247802649796009,-2.965139845648408,-1.3625252010345459
1667916004506914800,8.753914794921876,-9.23946327599585,-2.983136982370913,-1.379706491329521
1667916004516990000,8.763989990234375,-9.229248755973577,-2.9999191903457043,-1.4113251800388098
1667916004527063800,8.774063720703126,-9.219218360346556,-3.012182751852274,-1.4502259885802864
1667916004537139000,8.784138916015625,-9.211285813781618,-3.018122663295269,-1.4877942333437502
1667916004547214000,8.794214111328126,-9.206778565490245,-3.01696414090991,-1.517741043318063
1667916004557289000,8.8042890625,-9.206299257540703,-3.0087755737572905,-1.5367856432668865
1667916004567363000,8.814363037109375,-9.209766641390322,-2.9951605976417657,-1.5425931605018675
1667916004577438000,8.82443798828125,-9.215716489705443,-2.979727466188371,-1.5369384957410395
1667916004587513000,8.83451318359375,-9.221696733158826,-2.966388968926668,-1.5268375190958379
1667916004597587700,8.844587646484374,-9.225216139456629,-2.95782513872087,-1.5221818022444844
1667916004607662000,8.854662109375,-9.224615250954031,-2.955582620491087,-1.5301608182996511
1667916004617737000,8.864737060546876,-9.219698837339877,-2.9595535699486732,-1.5519596853926776
1667916004627811800,8.874811767578125,-9.211136760699748,-2.969121316500008,-1.5841918298251927
1667916004637887000,8.884886962890626,-9.200199187099933,-2.9826956683441996,-1.6218015756428241
1667916004647961900,8.8949619140625,-9.188049899622797,-2.9996143621802327,-1.6590455568879843
1667916004658036000,8.905035888671875,-9.175851512306927,-3.0185820975005626,-1.691831828071922
1667916004668110800,8.91511083984375,-9.164221280267833,-3.038039954425394,-1.719808799277991
1667916004678186000,8.92518603515625,-9.153946554490924,-3.055892129719257,-1.742747630186379
1667916004688261000,8.93526123046875,-9.145719408893585,-3.0699262080296874,-1.7611781898900865
1667916004698335000,8.9453349609375,-9.139424108141661,-3.0792084156379103,-1.7775779744185507
1667916004708410000,8.95541015625,-9.134436382856965,-3.0845477308392524,-1.7938854044884442
1667916004718485000,8.965485107421875,-9.130568601512909,-3.0870410089597105,-1.8092201901338993
1667916004728559900,8.975559814453124,-9.127447254621982,-3.087925682839751,-1.823404198309034
1667916004738634000,8.985634033203125,-9.124052351486682,-3.088934275360405,-1.8386244176641104
1667916004748708900,8.995708984375,-9.119602386340498,-3.0918335039332505,-1.8557487170748412
1667916004758784000,9.005783935546875,-9.113755998399853,-3.09829685472846,-1.8736051301524042
1667916004768859000,9.01585888671875,-9.106568132722376,-3.1099601122543215,-1.889168171595782
1667916004778933000,9.02593310546875,-9.099126584544777,-3.1267122173517943,-1.8973532316170632
1667916004789008000,9.0360078125,-9.092554220417142,-3.1470173387557265,-1.89528928482458
1667916004799083000,9.0460830078125,-9.087678138813375,-3.1679332855343816,-1.8837956847772002
1667916004809158000,9.056157958984375,-9.084790600678325,-3.1863223441839215,-1.8666316378779708
1667916004819233000,9.06623291015625,-9.084079237538576,-3.199792358870804,-1.8469472787208854
1667916004829307000,9.076306884765625,-9.08548735077083,-3.206325852292776,-1.828600305647403
1667916004839382000,9.086382080078126,-9.087886813127994,-3.2058246247723696,-1.8175237619683144
1667916004849457200,9.09645703125,-9.089828594845534,-3.200760327120125,-1.8167364109829067
1667916004859531800,9.10653173828125,-9.089991676452755,-3.1949668384104966,-1.8260941680453717
1667916004869606100,9.116606201171875,-9.088346831855178,-3.190107415680587,-1.8427026268884539
1667916004879680800,9.1266806640625,-9.085813513985276,-3.1873663002789017,-1.8598590750031172
1667916004889756000,9.136755859375,-9.083006639871,-3.1879221805959936,-1.8725718415819108
1667916004899831000,9.1468310546875,-9.079331166228652,-3.1934672475025057,-1.8809288971692322
1667916004909905000,9.15690478515625,-9.074793522799014,-3.2041946854829786,-1.8845806976750492
1667916004919980000,9.16697998046875,-9.0708667047441,-3.2194811019420624,-1.8774188432216643
1667916004930055000,9.177054931640624,-9.068895112410187,-3.2387112875908612,-1.853718818682432
1667916004940130000,9.187130126953125,-9.068681761920452,-3.261709009079635,-1.8140140002816914
1667916004950204000,9.197203857421876,-9.06907631419599,-3.286338423423469,-1.766979569645226
1667916004960279000,9.207279052734375,-9.069015523919463,-3.3092768159404393,-1.7239589046947656
1667916004970354000,9.21735400390625,-9.06877762351036,-3.3277102982535958,-1.6893772745266555
1667916004980429000,9.227428955078125,-9.06898571330309,-3.3401123914480206,-1.663590799102187
1667916004990504000,9.23750390625,-9.070127284553646,-3.3462434415489435,-1.644940751428902
1667916005000578000,9.247578125,-9.072019966432451,-3.346057563588023,-1.6348516113519667
1667916005010653000,9.25765283203125,-9.074312461283803,-3.34009544031322,-1.6343199886932969
1667916005020727800,9.267727783203124,-9.076803109055756,-3.329630160400271,-1.641827441713959
1667916005030803000,9.277802978515625,-9.079566144028306,-3.3158012492731213,-1.6544851171046495
1667916005040876800,9.287876708984374,-9.082648327952622,-3.2994238227069377,-1.6702347671613096
1667916005050952000,9.297951904296875,-9.085919896969198,-3.281241392545402,-1.6881638070836662
1667916005061027000,9.308027099609374,-9.089709936901926,-3.2615684315651654,-1.705793864059448
1667916005071102000,9.31810205078125,-9.09511091916263,-3.2401302144780755,-1.7178176254607735
1667916005081176000,9.328176025390626,-9.102710872772336,-3.2175410737901924,-1.7200215652458368
1667916005091251000,9.3382509765625,-9.112099463364482,-3.196165108284354,-1.7101351081341505
1667916005101326000,9.348326171875,-9.122241502672434,-3.1781913524374366,-1.6894347038023172
1667916005111401000,9.35840087890625,-9.131996588489413,-3.16587547622174,-1.6595945690728724
1667916005121475000,9.36847509765625,-9.140220226955414,-3.1598785738945003,-1.6253991617433725
1667916005131550000,9.378550048828124,-9.146184103795886,-3.1591794857144353,-1.5928854238905013
1667916005141624800,9.388624755859375,-9.149490159603953,-3.1614360324695703,-1.5692472125411032
1667916005151700000,9.398699951171874,-9.150265235629677,-3.1639164511084554,-1.5596983168207108
1667916005161774800,9.40877490234375,-9.149520554742217,-3.1647964488133784,-1.5622798577465116
1667916005171849000,9.418848876953126,-9.148781134551763,-3.16277020368278,-1.5706915661305187
1667916005181923800,9.428923828125,-9.14880393090546,-3.157848529371619,-1.580431015986949
1667916005191999000,9.4389990234375,-9.149693573221564,-3.1510406029224396,-1.5888476928070188
1667916005202074000,9.44907421875,-9.150866124132275,-3.143805098710954,-1.596408629580587
1667916005212148000,9.45914794921875,-9.151691469040513,-3.136816554997861,-1.605401060461998
1667916005222223000,9.46922314453125,-9.151960933631658,-3.13013283945024,-1.6168689415462314
1667916005232298000,9.479298095703125,-9.151626002588868,-3.123935446114838,-1.6306915690630674
1667916005242372900,9.489372802734374,-9.151479287594556,-3.1179937811061738,-1.6428396874964237
1667916005252447000,9.499447021484375,-9.152376528695225,-3.1119410569384693,-1.6493050841182468
1667916005262521900,9.50952197265625,-9.15417744063735,-3.106484545098245,-1.6495967605412005
1667916005272596700,9.5195966796875,-9.156493316364287,-3.102411012049019,-1.644402845159918
1667916005282671900,9.529671875,-9.158442696866393,-3.1008591064319013,-1.636454224243015
1667916005292745700,9.539745849609375,-9.158945385691522,-3.102292354105413,-1.6309155870772898
1667916005302820900,9.54982080078125,-9.156802528443931,-3.107788028912246,-1.632485320612043
1667916005312896000,9.55989599609375,-9.151630094242096,-3.1177295772120353,-1.6425034412793815
1667916005322971000,9.569970947265626,-9.144137108138203,-3.130893302428722,-1.6591121923834085
1667916005333045000,9.580044921875,-9.135902363756298,-3.145166450192034,-1.677379085958004
1667916005343120000,9.590119873046875,-9.128262078136204,-3.15931977096796,-1.6923098208472132
1667916005353195300,9.6001953125,-9.121285224860905,-3.1733979806810617,-1.7035503229163587
1667916005363270100,9.610270263671875,-9.114260440790654,-3.1876918789714574,-1.7144266678482294
1667916005373345000,9.620344970703124,-9.10686097818911,-3.2029601752519605,-1.7252571278117597
1667916005383419100,9.630419189453125,-9.09850874490738,-3.219399561138451,-1.7386758507028222
1667916005393494000,9.640493896484376,-9.088418143525718,-3.236945446962118,-1.7587576847448945
1667916005403569200,9.650569091796875,-9.076025110420584,-3.2550720552831884,-1.7890391335010527
1667916005413644000,9.66064404296875,-9.061730627608299,-3.272802650023997,-1.8287113648064433
1667916005423718100,9.67071826171875,-9.04725728109777,-3.2889480213999747,-1.8709202749826013
1667916005433793000,9.68079296875,-9.035738692739605,-3.302688669721782,-1.9021188385836778
1667916005443868200,9.6908681640625,-9.029301353168487,-3.3143308844596144,-1.9124093464516103
1667916005453943000,9.700943115234375,-9.02782426635325,-3.3256381681546565,-1.899710900659114
1667916005464017200,9.71101708984375,-9.02972454701662,-3.3381130343243477,-1.8685462393276393
1667916005474092000,9.721092041015625,-9.03257526027262,-3.3533450902476907,-1.8270311566345392
1667916005484167200,9.731167236328124,-9.03404883995652,-3.3719963069647547,-1.7849322827041147
1667916005494242300,9.7412421875,-9.03255889365971,-3.3933830861255525,-1.7516328013010323
1667916005504316200,9.751316162109376,-9.027071986681223,-3.416134723898768,-1.7356212854377924
1667916005514391300,9.761391357421875,-9.016889030840993,-3.4378602334946393,-1.7456265466235577
1667916005524466000,9.7714658203125,-9.001817718437314,-3.456131803244352,-1.786845422849059
1667916005534541000,9.781541015625,-8.983401771780848,-3.4687478314504023,-1.8538253477968274
1667916005544615000,9.791614990234375,-8.964547433707118,-3.47453401363641,-1.9325860191702842
1667916005554690000,9.80168994140625,-8.948744299897552,-3.4740947454363105,-2.005249250451475
1667916005564765200,9.81176513671875,-8.938108924114704,-3.470781967626512,-2.0577320096217093
1667916005574840000,9.821840087890624,-8.931939295569062,-3.4686323883771895,-2.087925049442053
1667916005584915200,9.831915283203125,-8.92785699469149,-3.470949433147907,-2.101490925718844
1667916005594989000,9.841989013671874,-8.923931930202246,-3.4792423374578356,-2.1044474374368787
1667916005605064200,9.852064208984375,-8.919826832970976,-3.493437451548874,-2.0983244245119392
1667916005615139000,9.86213916015625,-8.916101674968004,-3.51281405993104,-2.0817428536757827
1667916005625214200,9.872214111328125,-8.913713318526744,-3.536017825385928,-2.0524815417476
1667916005635288000,9.8822880859375,-8.912399313318728,-3.5616961642608045,-2.0134163364246485
1667916005645363200,9.89236328125,-8.910695432010293,-3.5871444937720893,-1.975420806159824
1667916005655438000,9.90243798828125,-8.907464779525995,-3.611082126459479,-1.9461616861887274
1667916005665513000,9.912512939453125,-8.902896156436205,-3.63139075499475,-1.92920412164703
1667916005675587000,9.922587158203125,-8.897752948328852,-3.6463691284179687,-1.9246733463495969
1667916005685662000,9.932661865234374,-8.892355473199487,-3.655025313082337,-1.933180331801623
1667916005695737000,9.942737060546875,-8.887071395316719,-3.6567882311016318,-1.954032857955247
1667916005705812200,9.952812255859374,-8.88272372150123,-3.651341948394477,-1.9837607644818722
1667916005715887000,9.96288720703125,-8.880248271298408,-3.639282969549298,-2.0167292603649196
1667916005725961200,9.972961181640626,-8.880643992617726,-3.621009938494861,-2.0476395085439085
1667916005736036000,9.9830361328125,-8.884547429797053,-3.597841244353354,-2.0714098218403754
1667916005746111200,9.993111328125,-8.891702562248707,-3.57232540256381,-2.0848262066438794
1667916005756186000,10.00318603515625,-8.901304503330588,-3.5473598881334065,-2.0864795268088576
1667916005766260200,10.01326025390625,-8.911770367765426,-3.5259742780163883,-2.07803640037328
1667916005776335000,10.023335205078125,-8.920535273501276,-3.5118069287151097,-2.06437466250658
1667916005786410000,10.033409912109375,-8.925008035001158,-3.5073704075723886,-2.0525521227657793
1667916005796485000,10.043485107421875,-8.923695198836922,-3.5134503120079636,-2.0478565122954544
1667916005806559000,10.05355908203125,-8.916842264202236,-3.527621460701525,-2.0533377201855183
1667916005816634000,10.063634033203124,-8.906198120591045,-3.546155773040652,-2.067558114848286
1667916005826709000,10.073708984375,-8.894856057843565,-3.5641111164480446,-2.0854333787567914
1667916005836784000,10.0837841796875,-8.886737633317708,-3.5767800438851114,-2.0983146337702867
1667916005846858000,10.09385791015625,-8.884899896496535,-3.5810473459407683,-2.0988187839001418
1667916005856933000,10.10393310546875,-8.890227228999137,-3.5764538806706665,-2.084039732441306
1667916005867008300,10.11400830078125,-8.901085307621955,-3.5647397697404024,-2.0575940624557436
1667916005877083100,10.124083251953126,-8.914070461401343,-3.5492972859367726,-2.027859872318804
1667916005887158300,10.134158203125,-8.924875348532199,-3.534880345788598,-2.0053945041410626
1667916005897232100,10.144232177734375,-8.930545210862158,-3.523995671419799,-1.9993015940934418
1667916005907307300,10.154307373046874,-8.929975886541605,-3.5175419652357696,-2.013160023576021
1667916005917382000,10.1643818359375,-8.92485547478795,-3.514692713284492,-2.040656371658295
1667916005927457000,10.17445703125,-8.918642591622472,-3.513089369741082,-2.0703627970054743
1667916005937531000,10.18453076171875,-8.914273875018953,-3.510487955071032,-2.0934613485202194
1667916005947606000,10.19460595703125,-8.912912523537873,-3.506151971693337,-2.106484057831019
1667916005957681200,10.20468115234375,-8.914005579471588,-3.5005741715610026,-2.111131299114972
1667916005967756000,10.214756103515626,-8.916190522295237,-3.4950668063163755,-2.1110288616538044
1667916005977830100,10.224830078125,-8.91810366244018,-3.490357021190226,-2.1107386465355753
1667916005987905000,10.234905029296876,-8.91832870336771,-3.4868452136769887,-2.1155859404362736
1667916005997980200,10.244980224609375,-8.915936255273222,-3.4838735043898224,-2.130514337237924
1667916006008055300,10.25505517578125,-8.911627159902453,-3.4805034434348343,-2.153922685354203
1667916006018129200,10.265129150390624,-8.906981379923224,-3.4750533613353967,-2.181758640654385
1667916006028204300,10.275204345703125,-8.902887388607859,-3.4676977378755804,-2.2099887098386883
1667916006038279200,10.285279052734374,-8.89997471603155,-3.4594787755846976,-2.2344654178388415
1667916006048354000,10.29535400390625,-8.898023581963777,-3.4523543305322524,-2.253178301615268
1667916006058428200,10.30542822265625,-8.896531882101296,-3.4477255016878243,-2.2661188856005667
1667916006068503000,10.3155029296875,-8.895194496017695,-3.4458737363412975,-2.274170528500527
1667916006078578000,10.325577880859376,-8.894715772590041,-3.4459874258488417,-2.2758698797643184
1667916006088653000,10.335653076171875,-8.897133939647674,-3.4469527637496586,-2.2649309909902513
1667916006098728200,10.345728271484376,-8.90389276625812,-3.447526764245331,-2.2373267986193297
1667916006108802000,10.355802001953125,-8.913477171683311,-3.4480163013279435,-2.198064171028137
1667916006118877200,10.365877197265625,-8.92332753456831,-3.449792663350701,-2.154887146472186
1667916006128952000,10.3759521484375,-8.931259496611355,-3.4544060023650527,-2.1142539611801503
1667916006139027200,10.386027099609375,-8.935753300899266,-3.463265600647032,-2.0805024982258677
1667916006149101000,10.39610107421875,-8.937008853918313,-3.475644897487759,-2.0543017429120836
1667916006159176200,10.40617626953125,-8.935837472051382,-3.4890292797178026,-2.0366319384478033
1667916006169251300,10.416251220703124,-8.93238879290223,-3.5016312793985005,-2.0301218259014187
1667916006179326000,10.426325927734375,-8.926267679673433,-3.512768467223644,-2.0377906069636342
1667916006189400300,10.436400390625,-8.917479393061996,-3.521706391438842,-2.0607102947801352
1667916006199475000,10.446474853515625,-8.907401651161909,-3.5274165857791897,-2.0942564444206653
1667916006209550000,10.456550048828126,-8.8986513584733,-3.5280060761049388,-2.1301561714500186
1667916006219625000,10.466625,-8.893455543395877,-3.5219229567989703,-2.1616882047891615
1667916006229700000,10.4767001953125,-8.892820752623678,-3.5095226171702145,-2.184347195842862
1667916006239774000,10.48677392578125,-8.8966563852638,-3.4931475286915896,-2.194950861313194
1667916006249849000,10.49684912109375,-8.903373710820079,-3.475971937485039,-2.194981694842875
1667916006259924200,10.50692431640625,-8.910472729170323,-3.460679383546114,-2.1903322616018355
1667916006269999000,10.5169990234375,-8.915843316292762,-3.4485467549428344,-2.187612335118651
1667916006280073200,10.5270732421875,-8.919355708327888,-3.439395480237901,-2.1877014747068286
1667916006290148000,10.537148193359375,-8.922005346053838,-3.432081357832253,-2.188383757882565
1667916006300223200,10.54722314453125,-8.924995175519586,-3.4252968122586607,-2.186821477001905
1667916006310298000,10.557298095703125,-8.929661413764952,-3.4182802114948627,-2.178737247006595
1667916006320372200,10.567372314453126,-8.936676845484971,-3.4114693624362347,-2.1605711834579706
1667916006330447000,10.577447021484375,-8.945769668000937,-3.405682011206448,-2.131882118459791
1667916006340522000,10.58752197265625,-8.956276448968053,-3.402266357544064,-2.0928646978013217
1667916006350593800,10.59759375,-8.966610211455821,-3.4024019666224716,-2.0479123341359196
1667916006360667600,10.607667724609374,-8.974847878447175,-3.407043947209418,-2.0036326090350745
1667916006370742800,10.61774267578125,-8.979888210701942,-3.415734034143388,-1.9658989445768296
1667916006380818000,10.62781787109375,-8.982699760991334,-3.4266733613088727,-1.933753601644933
1667916006390892800,10.637892822265625,-8.983846008417009,-3.4381466492205854,-1.907889969331026
1667916006400968000,10.647968017578124,-8.984368570986389,-3.4482124084219334,-1.8871512788154183
1667916006411041800,10.658041748046875,-8.985158260059356,-3.4555995960637924,-1.8697994542591272
1667916006421117000,10.668116943359376,-8.98643953204155,-3.4603856612965465,-1.8547284341163932
1667916006431191800,10.67819189453125,-8.98772255758941,-3.4635926406443116,-1.8424862076587973
1667916006441266700,10.6882666015625,-8.989231793108582,-3.4650995380759237,-1.8322616046339273
1667916006451340800,10.6983408203125,-8.992169015604256,-3.4635274664536118,-1.8207843711994587
1667916006461415700,10.708415771484376,-8.997961627531051,-3.4569048334434624,-1.804681377660483
1667916006471490800,10.71849072265625,-9.00769917769134,-3.4432314051389694,-1.7821050964541731
1667916006481565700,10.728565673828125,-9.021819472980498,-3.4211291711851954,-1.7530081813074647
1667916006491639800,10.738639892578124,-9.039859572061896,-3.3904625225037335,-1.7193259841971098
1667916006501714700,10.748714599609375,-9.060738109439612,-3.353092576791346,-1.682312596837431
1667916006511789800,10.758789794921874,-9.081921767243742,-3.313203926256299,-1.6467413711100816
1667916006521865000,10.768864990234375,-9.100943278577923,-3.275595787873864,-1.6166902239784597
1667916006531939800,10.77893994140625,-9.11650266675949,-3.2434684189900755,-1.5936350732140243
1667916006542014000,10.789013916015625,-9.127910780480503,-3.2179175058871508,-1.5800735808514057
1667916006552088800,10.7990888671875,-9.134805216169356,-3.19835472728312,-1.5799492238193749
1667916006562163700,10.809163818359375,-9.138654877334833,-3.1818487059012055,-1.5909771060511468
1667916006572238800,10.81923876953125,-9.141633600884676,-3.165377463571727,-1.6066450691737233
1667916006582312700,10.829312744140625,-9.145072343161702,-3.1464336936488744,-1.6241906627364455
1667916006592387800,10.839387939453125,-9.148752492979169,-3.1247847564205524,-1.645122683867067
1667916006602462700,10.849462646484374,-9.152315738418698,-3.1019048160925506,-1.6684386775247753
1667916006612537900,10.859537841796875,-9.154927966743706,-3.08061682113111,-1.6933638599447904
1667916006622611700,10.86961181640625,-9.1559485419631,-3.0629502315372226,-1.7196866342030463
1667916006632686800,10.879686767578125,-9.155913470649718,-3.049678662031889,-1.7433000033721326
1667916006642761700,10.88976171875,-9.155875476726889,-3.041412645728886,-1.7578788560837506
1667916006652836900,10.8998369140625,-9.15706790138185,-3.038120910707116,-1.7573581932105122
1667916006662912000,10.909912109375,-9.160268158727884,-3.038786681139469,-1.7394405514650046
1667916006672985900,10.91998583984375,-9.165044871610403,-3.0420658489406107,-1.7082647842176257
1667916006683061000,10.93006103515625,-9.17085151206255,-3.045910833930969,-1.6698175646625457
1667916006693135600,10.940135498046875,-9.17696736459434,-3.0488711450412866,-1.6303481624528764
1667916006703210800,10.950210693359375,-9.182541949856281,-3.051144642931223,-1.5943103421270846
1667916006713284600,10.96028466796875,-9.187574683326483,-3.052132777185738,-1.5631187927886843
1667916006723359700,10.97035986328125,-9.191450063455104,-3.051837593631446,-1.5407507475055753
1667916006733435000,10.980434814453124,-9.193330470374226,-3.0515275047689676,-1.530111572330445
1667916006743509800,10.990509765625,-9.192442581623792,-3.05396554557085,-1.5305797743640839
1667916006753583900,11.000583984375,-9.188356773614883,-3.0617943395003673,-1.5394494556486606
1667916006763658800,11.01065869140625,-9.181969118404387,-3.075253540532291,-1.5506905422396957
1667916006773734000,11.02073388671875,-9.175273420158028,-3.0925504200309515,-1.5559149988897143
1667916006783808800,11.030808837890625,-9.16984087371528,-3.112025812612474,-1.5490956742636859
1667916006793883000,11.0408828125,-9.166268860447406,-3.131651135058701,-1.5305753904499113
1667916006803957800,11.050957763671875,-9.164923875579237,-3.1497964480802416,-1.5011099342517553
1667916006814033000,11.061032958984375,-9.166285811582208,-3.1652532526701687,-1.4597133633717894
1667916006824107800,11.071107666015624,-9.17070012089312,-3.1779894001245497,-1.4032181536898016
1667916006834182700,11.0811826171875,-9.177872789001464,-3.187451640474796,-1.3331120595455168
1667916006844256800,11.0912568359375,-9.186443633469938,-3.1937244371339677,-1.2568857289552688
1667916006854331600,11.10133154296875,-9.194763133525848,-3.197651547449827,-1.1839515717782079
1667916006864406800,11.11140673828125,-9.20126827763617,-3.2001345964372154,-1.1252457733746617
1667916006874482000,11.12148193359375,-9.204854903951286,-3.201727126325667,-1.0908608348224311
1667916006884555800,11.1315556640625,-9.20535350112319,-3.202213448537886,-1.0852088004101068
1667916006894631000,11.141630859375,-9.20328312458992,-3.201635064128041,-1.1043073225032538
1667916006904705800,11.151705810546876,-9.19934812322855,-3.200311122047901,-1.140346384938061
1667916006914781000,11.161781005859375,-9.194667856457828,-3.1990435863301157,-1.1809257211510091
1667916006924854800,11.171854736328125,-9.190455207198857,-3.1981215030491352,-1.2157052119787781
1667916006934930000,11.181929931640624,-9.187377114927768,-3.19807532581985,-1.2388712027065456
1667916006945004800,11.1920048828125,-9.18587956984639,-3.1987448956444857,-1.2482137621998786
1667916006955079700,11.20207958984375,-9.18586320323348,-3.200064453810453,-1.244944677401334
1667916006965154800,11.21215478515625,-9.186585087767243,-3.202207603318989,-1.234058541727811
1667916006975228700,11.222228759765626,-9.187033416056632,-3.2046962052643297,-1.2242254222385585
1667916006985303800,11.2323037109375,-9.186884362974762,-3.206648216114938,-1.2202251736212522
1667916006995378700,11.242378662109376,-9.186711929017305,-3.207465085455775,-1.219373963619396
1667916007005453800,11.252453857421875,-9.187462455123663,-3.2056305635049935,-1.2185452577102929
1667916007015527700,11.262527587890625,-9.189487238949537,-3.2009663710862397,-1.2155361390221864
1667916007025602800,11.272602783203125,-9.192574099048972,-3.194123081062734,-1.2101822838388383
1667916007035678000,11.282677978515625,-9.19628698209226,-3.1858672938928008,-1.2037187138479202
1667916007045752800,11.2927529296875,-9.199320650699734,-3.17862243733108,-1.19968383230865
1667916007055827000,11.302826904296875,-9.201070124715566,-3.173634127524495,-1.1994749387983232
1667916007065901800,11.31290185546875,-9.201680950090289,-3.1709342209160325,-1.2019265697341412
1667916007075977000,11.32297705078125,-9.202122848638892,-3.1691274637550113,-1.2033071373723447
1667916007086051600,11.333051513671874,-9.203383662354945,-3.166489516466856,-1.200606427046284
1667916007096126000,11.3431259765625,-9.205288034671545,-3.1626334255605935,-1.1961635492280125
1667916007106200600,11.35320068359375,-9.206633019539714,-3.1586648141905664,-1.1962995236326008
1667916007116275700,11.363275634765625,-9.20604323695302,-3.156374072904885,-1.2068372842598705
1667916007126350800,11.373350830078126,-9.202485252210497,-3.157516520938277,-1.2307460561789572
1667916007136425700,11.38342578125,-9.196122731441259,-3.1618530888378618,-1.2666485596872865
1667916007146499800,11.393499755859375,-9.18821181218624,-3.1679350391000507,-1.3081786938190458
1667916007156574700,11.40357470703125,-9.180693107119202,-3.1734464959979056,-1.3470320099569857
1667916007166649900,11.41364990234375,-9.175461636206506,-3.175942404466867,-1.3764726239748297
1667916007176725000,11.42372509765625,-9.173232854241132,-3.173992439442873,-1.395692872751504
1667916007186798800,11.433798828125,-9.173672999224067,-3.1675606528297067,-1.4073635829314588
1667916007196874000,11.4438740234375,-9.175570357277989,-3.1572204606011507,-1.4181870286323128
1667916007206948900,11.453948974609375,-9.177765821495651,-3.1441043739184735,-1.4330411911539733
1667916007217023700,11.464023681640626,-9.178940710493922,-3.1308772280767556,-1.4543183724604547
1667916007227098600,11.4740986328125,-9.177827780815958,-3.1209117143794893,-1.4824870668463408
1667916007237172700,11.4841728515625,-9.174611156857013,-3.1161221420153975,-1.5121743491016328
1667916007247247600,11.49424755859375,-9.17073753029406,-3.116804279060662,-1.534109263664484
1667916007257322800,11.50432275390625,-9.167802061364053,-3.121820061396062,-1.541435807160288
1667916007267398000,11.51439794921875,-9.16560951975584,-3.131175041979551,-1.535490342759341
1667916007277471700,11.5244716796875,-9.162701523354649,-3.1461104530438777,-1.5222608588300643
1667916007287547000,11.534546875,-9.15818842984438,-3.166682700951397,-1.506683058208972
1667916007297621800,11.544621826171875,-9.15218071386218,-3.1911995948314664,-1.4913796906150876
1667916007307697000,11.55469677734375,-9.146090580293535,-3.2154689436912536,-1.4765389720968902
1667916007317770800,11.564770751953125,-9.141297500798105,-3.2351863283351063,-1.4630898540675639
1667916007327846000,11.574845947265626,-9.138445618498325,-3.2476255386695265,-1.4533134332016109
1667916007337921000,11.584921142578125,-9.137644238987564,-3.251430776171386,-1.4498419576987622
1667916007347995100,11.5949951171875,-9.138654877334833,-3.246556155872345,-1.4543863231301306
1667916007358070000,11.605070068359375,-9.140907624697684,-3.234858119294047,-1.4662475874461234
1667916007368144100,11.61514404296875,-9.143361447590589,-3.219498053076863,-1.4846408838793634
1667916007378219000,11.625218994140624,-9.145051884895562,-3.2034342225044963,-1.5087798843577502
1667916007388294000,11.6352939453125,-9.14492621268928,-3.1889486010342836,-1.5399077208101748
1667916007398369000,11.645369140625,-9.142214031121135,-3.177772542503476,-1.578627473696321
1667916007408443000,11.65544287109375,-9.13763488663733,-3.1701696662843224,-1.6198887277588248
1667916007418518000,11.66551806640625,-9.132613843604922,-3.165843912039697,-1.6562544648647308
1667916007428593200,11.67559326171875,-9.129571991690993,-3.1631387447342276,-1.6780512861311434
1667916007438668000,11.68566796875,-9.13045111261308,-3.160265235124528,-1.6786800855539739
1667916007448742100,11.6957421875,-9.135332454913854,-3.156274411922693,-1.6595219422280787
1667916007458817000,11.705817138671875,-9.142735424646734,-3.1505352837488054,-1.6293880852490663
1667916007468892200,11.71589208984375,-9.15089418118298,-3.143053988082707,-1.597725265137106
1667916007478967000,11.725967041015625,-9.158900962027907,-3.1344135855093596,-1.5685561615370214
1667916007489042000,11.7360419921875,-9.166174167901277,-3.1245950790673493,-1.5454888819433747
1667916007499116300,11.7461162109375,-9.171779148301482,-3.115037853910029,-1.5314657634183764
1667916007509191000,11.75619091796875,-9.175048963752388,-3.107079296121001,-1.5280441184066236
1667916007519266000,11.76626611328125,-9.175692522352934,-3.102562695479393,-1.5333483622945845
1667916007529341000,11.7763408203125,-9.174644474604726,-3.1020424709975716,-1.5406554704375564
1667916007539415000,11.7864150390625,-9.173544404408336,-3.103949473662674,-1.5433609300039708
1667916007549490000,11.796489990234376,-9.173495889091491,-3.107032242108881,-1.5374354854777454
1667916007559565000,11.80656494140625,-9.174884128579496,-3.109475543607771,-1.5241545636221765
1667916007569640200,11.81664013671875,-9.176557614749669,-3.1109587679028508,-1.5109946377977728
1667916007579714000,11.826714111328124,-9.176543586224318,-3.1120746201902625,-1.5087801766186952
1667916007589789200,11.8367890625,-9.173456141602992,-3.113288087633252,-1.5249666106574236
1667916007599864000,11.846864013671874,-9.167263716703653,-3.1141335985466836,-1.5600725569605827
1667916007609939200,11.856939208984375,-9.159422940075396,-3.113502899427712,-1.606691684794426
1667916007620014000,11.86701416015625,-9.151745245054364,-3.1104540332511066,-1.6556021384358406
1667916007630088200,11.877088134765625,-9.145217889112233,-3.104783586399257,-1.701672692476213
1667916007640163000,11.8871630859375,-9.139998108637332,-3.0974943061739206,-1.7425136753000319
1667916007650238000,11.897238037109375,-9.136136757034063,-3.090445264445245,-1.7749750984437762
1667916007660313000,11.90731298828125,-9.134100867292284,-3.0849393605053423,-1.7949188391894102
1667916007670387000,11.917386962890625,-9.133279029515386,-3.0824004896774886,-1.8034437986895442
1667916007680462000,11.927462158203125,-9.131602620735764,-3.085031422702968,-1.8074278998896478
1667916007690537000,11.937536865234375,-9.127947605359553,-3.0941584397494792,-1.810285481277853
1667916007700612000,11.947612060546875,-9.122420950892566,-3.109945206946134,-1.8110931443989275
1667916007710686000,11.95768603515625,-9.115744541868567,-3.1301299168407914,-1.809937836883962
1667916007720761000,11.967760986328125,-9.109152303996682,-3.151604666545987,-1.8058574357025323
1667916007730836200,11.977836181640624,-9.1043621471107,-3.171338710063696,-1.7954336568437517
1667916007740911000,11.9879111328125,-9.10283245332539,-3.186657859748602,-1.7759608946107326
1667916007750986000,11.997986083984374,-9.105893594461678,-3.194488699504733,-1.745944818792492
1667916007761060000,12.00806005859375,-9.113125883802772,-3.1930197959959505,-1.7105382821075616
1667916007771135000,12.018135009765626,-9.12182006238997,-3.183333391501009,-1.6820150751955807
1667916007781209900,12.0282099609375,-9.128137574973701,-3.1686370498895644,-1.6754773439899087
1667916007791285000,12.038284912109376,-9.128927264046668,-3.1532521414920684,-1.7000218565292655
1667916007801359000,12.048359130859374,-9.123543817442656,-3.1404771233320234,-1.7517817082524298
1667916007811434000,12.05843408203125,-9.113578888267279,-3.1314301857843994,-1.8185741478040813
1667916007821509000,12.068509033203124,-9.101961515709757,-3.1257562318012115,-1.8852930837281048
1667916007831584000,12.078583984375,-9.091776806303859,-3.12290551854521,-1.9384120949752628
1667916007841658000,12.088658203125,-9.085594318276643,-3.122958125515282,-1.9671032058000564
1667916007851733000,12.09873291015625,-9.083750151714682,-3.127159668858349,-1.968944742013514
1667916007861808000,12.10880810546875,-9.08418445147872,-3.1374279648944734,-1.9505179817020892
1667916007871883300,12.11888330078125,-9.08397928429544,-3.155594028443098,-1.921960434129089
1667916007881958000,12.1289580078125,-9.08130918830335,-3.182395526129007,-1.8901245955377817
1667916007892032300,12.1390322265625,-9.075764998179674,-3.2161428974300623,-1.8593802054449915
1667916007902107000,12.14910693359375,-9.068916155198217,-3.2530130769267678,-1.828399668508768
1667916007912182000,12.15918212890625,-9.063191932332515,-3.289279445311427,-1.791527297054976
1667916007922257000,12.1692568359375,-9.059927962100506,-3.322360461658239,-1.7464290951780974
1667916007932331000,12.1793310546875,-9.05872560057342,-3.351441302452981,-1.6963851074621081
1667916007942406100,12.18940625,-9.058347414910793,-3.377479122290015,-1.6460142258793116
1667916007952481000,12.19948095703125,-9.057152652168273,-3.4024174564525484,-1.6006012589648364
1667916007962556200,12.20955615234375,-9.053925506815315,-3.4277614488065242,-1.5643739074163139
1667916007972631000,12.219631103515624,-9.048390669041872,-3.4533129464313386,-1.5400151267074047
1667916007982705200,12.229705078125,-9.04039324054718,-3.4779458679065107,-1.5315256769120693
1667916007992780000,12.239780029296876,-9.02955678923428,-3.500496430149674,-1.5440239239573479
1667916008002855200,12.249855224609375,-9.01646642151475,-3.5197035271838306,-1.5765161806307733
1667916008012930000,12.259929931640626,-9.003083792850374,-3.5343586600020527,-1.6196220396466552
1667916008023004200,12.270004150390625,-8.991645283991097,-3.5430624832004307,-1.6635517822660504
1667916008033079000,12.2800791015625,-8.98401551976502,-3.5457580058947205,-1.6986619663529097
1667916008043154000,12.29015380859375,-8.982015870380401,-3.543058391547203,-1.7147934553340076
1667916008053229000,12.30022900390625,-8.98600990845263,-3.537244444571435,-1.7058466171599924
1667916008063303000,12.310302978515624,-8.994660247898102,-3.531200195971131,-1.6724521509498356
1667916008073378000,12.3203779296875,-9.00548208616376,-3.5282343319028615,-1.6196407443471252
1667916008083453200,12.330453125,-9.015805911779402,-3.5305180589258667,-1.555980026949942
1667916008093528000,12.340528076171875,-9.023397097560762,-3.539645660494268,-1.4898295385636389
1667916008103603200,12.350603271484376,-9.028180240184069,-3.5526787450686097,-1.4285722290463745
1667916008113677000,12.360677001953125,-9.031147857818008,-3.5653088018000125,-1.3774359160490333
1667916008123752200,12.370752197265626,-9.03341580274999,-3.5740497421383854,-1.3393855868570506
1667916008133827000,12.3808271484375,-9.03582111032605,-3.5769866723731156,-1.3151011865586042
1667916008143902000,12.39090185546875,-9.038536799025534,-3.574479950249195,-1.3031988595798611
1667916008153976000,12.40097607421875,-9.041190528404712,-3.5682626831695434,-1.3018316628798843
1667916008164051000,12.411051025390625,-9.04337488670647,-3.560602523805201,-1.3076160915002226
1667916008174126000,12.4211259765625,-9.045247110319137,-3.552918399043381,-1.3155435234986246
1667916008184201000,12.431200927734375,-9.04733093085587,-3.54560895281285,-1.3209271162331104
1667916008194276000,12.441276123046874,-9.049799951317906,-3.538514902898669,-1.3230322718188166
1667916008204350000,12.451349853515625,-9.052330931100249,-3.531467030213773,-1.3245502751663327
1667916008214425000,12.461425048828126,-9.05492153211534,-3.5235885519236323,-1.327819652225822
1667916008224500200,12.471500244140625,-9.058034111177921,-3.5139226056948303,-1.3321965521357952
1667916008234575000,12.4815751953125,-9.061398619174957,-3.5033450975790617,-1.3371654265895485
1667916008244649200,12.491649169921875,-9.064103786480427,-3.493217671318352,-1.3453000715978443
1667916008254724000,12.50172412109375,-9.064810473445057,-3.4856653562426567,-1.3600485817879437
1667916008264799200,12.51179931640625,-9.063397684037685,-3.4816374159008263,-1.3796416093997657
1667916008274873900,12.521873779296875,-9.061144352152944,-3.4803628659203647,-1.397540108053386
1667916008284949000,12.531948974609374,-9.059578418010473,-3.480006015306711,-1.4085378874078391
1667916008295022800,12.54202294921875,-9.0599963511616,-3.478191074839234,-1.410333392522484
1667916008305098000,12.552097900390624,-9.062968060448766,-3.473963520272076,-1.401630299976468
1667916008315173000,12.562173095703125,-9.068563103976846,-3.4680966740652917,-1.3798000148318708
1667916008325248000,12.572248046875,-9.075816436105965,-3.4630127949297425,-1.3444267958946525
1667916008335322000,12.582322021484375,-9.082622024467588,-3.461291085703671,-1.302239513028413
1667916008345397000,12.59239697265625,-9.086653471940755,-3.4650101062268015,-1.263652592741698
1667916008355472100,12.60247216796875,-9.08677388345003,-3.4745267071127888,-1.236362580886483
1667916008365547300,12.61254736328125,-9.083184334525466,-3.488432190607488,-1.2235160318601876
1667916008375621000,12.62262109375,-9.077362496504188,-3.503698441061377,-1.2231010943837464
1667916008385696300,12.6326962890625,-9.071471100378036,-3.516703468585014,-1.22946814519763
1667916008395771100,12.642771240234374,-9.067014120969176,-3.5252053394705056,-1.2379716235183178
1667916008405846000,12.652845947265625,-9.064602968174219,-3.528118888829648,-1.2472903637446462
1667916008415921000,12.6629208984375,-9.06370689611733,-3.5263901653409,-1.2586398791462183
1667916008425995000,12.6729951171875,-9.062925390350818,-3.522563008268177,-1.2748796508073805
1667916008436070000,12.68306982421875,-9.061126816496252,-3.518894841149449,-1.2975930023968218
1667916008446145000,12.69314501953125,-9.05837021126449,-3.5163109621360897,-1.3235820146560668
1667916008456220200,12.70322021484375,-9.0562443051517,-3.5139515395283696,-1.3442362417586147
1667916008466294000,12.7132939453125,-9.056512016177177,-3.511034190776944,-1.3500409825146198
1667916008476369200,12.723369140625,-9.059363313955068,-3.5077941859424113,-1.3392901636585592
