time,seconds_elapsed,z,y,x
1667915995792200700,0.03920068359375,-0.5270565152168274,0.32344913482666016,-0.31334713101387024
1667915995802275600,0.049275634765625,-0.47462475299835205,0.24470144510269165,-0.3821682035923004
1667915995812350700,0.059350830078125,-0.4165036678314209,0.11669820547103882,-0.4169014096260071
1667915995822425600,0.069425537109375,-0.3450179398059845,-0.050824590027332306,-0.41565513610839844
1667915995832500700,0.079500732421875,-0.263842910528183,-0.2313682734966278,-0.3844096064567566
1667915995842576000,0.089575927734375,-0.21062071621418,-0.3496370017528534,-0.3298582136631012
1667915995852650800,0.099650634765625,-0.19919335842132568,-0.38591936230659485,-0.25117141008377075
1667915995862724900,0.109724853515625,-0.21699611842632294,-0.293874591588974,-0.1709345430135727
1667915995872799700,0.1197998046875,-0.2233850359916687,-0.11820849031209946,-0.09074010699987411
1667915995882874600,0.12987451171875,-0.23566704988479614,0.11236634105443954,-0.009093969129025936
1667915995892949500,0.139949462890625,-0.26351121068000793,0.32239094376564026,0.07365044951438904
1667915995903024600,0.150024658203125,-0.306572824716568,0.42242199182510376,0.14889851212501526
1667915995913099800,0.160099853515625,-0.3184039294719696,0.42135539650917053,0.21802273392677307
1667915995923174700,0.170174560546875,-0.30314427614212036,0.3633194863796234,0.2745038866996765
1667915995933248800,0.180248779296875,-0.29188576340675354,0.3436794877052307,0.31232741475105286
1667915995943323600,0.19032373046875,-0.2910771369934082,0.36003559827804565,0.3276042938232422
1667915995953398800,0.200398681640625,-0.3174091577529907,0.3835238814353943,0.31288474798202515
1667915995963474000,0.210473876953125,-0.3651573956012726,0.3486267328262329,0.2679765522480011
1667915995973548500,0.220548583984375,-0.3998136520385742,0.24690598249435425,0.17603304982185364
1667915995983623700,0.230623779296875,-0.43210238218307495,0.15903691947460175,0.05898289009928703
1667915995993698600,0.240698486328125,-0.4808659255504608,0.10243277251720428,-0.06440216302871704
1667915996003772700,0.250772705078125,-0.5258824825286865,0.1349097043275833,-0.18814398348331451
1667915996013847600,0.26084765625,-0.5438045263290405,0.26747626066207886,-0.2817716896533966
1667915996023922700,0.270922607421875,-0.5545362234115601,0.46820855140686035,-0.33690977096557617
1667915996033997800,0.280997802734375,-0.5520174503326416,0.5865088105201721,-0.34768012166023254
1667915996044072700,0.29107275390625,-0.5423252582550049,0.5636008977890015,-0.3307246267795563
1667915996054147800,0.30114794921875,-0.5441710948944092,0.43012672662734985,-0.2959839701652527
1667915996064222500,0.311222412109375,-0.5539841651916504,0.19953612983226776,-0.25886720418930054
1667915996074296800,0.321296875,-0.5871607065200806,-0.08072294294834137,-0.23764684796333313
1667915996084371700,0.331371826171875,-0.6364701986312866,-0.3635365068912506,-0.2316339910030365
1667915996094446600,0.341446533203125,-0.664527952671051,-0.5937875509262085,-0.22443200647830963
1667915996104521700,0.351521728515625,-0.6838420629501343,-0.7349472045898438,-0.2211836874485016
1667915996114596600,0.3615966796875,-0.694322407245636,-0.7341440320014954,-0.2158203423023224
1667915996124671700,0.371671630859375,-0.6916376352310181,-0.60228031873703,-0.2014177441596985
1667915996134745600,0.38174560546875,-0.6730852723121643,-0.4314585030078888,-0.1790759414434433
1667915996144820700,0.39182080078125,-0.6438851356506348,-0.29188358783721924,-0.13970628380775452
1667915996154896000,0.401895751953125,-0.6086155772209167,-0.2030341476202011,-0.09017122536897659
1667915996164970800,0.411970703125,-0.5653632283210754,-0.14841805398464203,-0.03366953134536743
1667915996175045600,0.422045654296875,-0.5366788506507874,-0.052630797028541565,0.034907929599285126
1667915996185120500,0.43212060546875,-0.5449545979499817,0.008933120407164097,0.10034624487161636
1667915996195195600,0.442195556640625,-0.5827538967132568,0.007836163975298405,0.15380068123340607
1667915996205269500,0.45226953125,-0.6448708176612854,-0.0564768984913826,0.17999717593193054
1667915996215344600,0.4623447265625,-0.6970336437225342,-0.1271132528781891,0.19727389514446259
1667915996225419800,0.472419677734375,-0.7292363047599792,-0.1652171015739441,0.19426774978637695
1667915996235494700,0.48249462890625,-0.7497703433036804,-0.16153208911418915,0.15709081292152405
1667915996245569800,0.49256982421875,-0.7573810815811157,-0.015424950048327446,0.1108177900314331
1667915996255644700,0.502644775390625,-0.7452030181884766,0.198462575674057,0.06125343590974808
1667915996265719600,0.512719482421875,-0.7276782393455505,0.3773069381713867,0.02635447308421135
1667915996275793700,0.522793701171875,-0.710394024848938,0.46502429246902466,0.006535761058330536
1667915996285868500,0.53286865234375,-0.7034062743186951,0.47211751341819763,0.009747134521603584
1667915996295943700,0.542943603515625,-0.7334347367286682,0.43468600511550903,0.03717369958758354
1667915996306018600,0.5530185546875,-0.7677724361419678,0.35668906569480896,0.07913492619991302
1667915996316093700,0.56309375,-0.8065602779388428,0.238236203789711,0.1145765408873558
1667915996326168800,0.5731689453125,-0.830305814743042,0.17652547359466553,0.1399223506450653
1667915996336242700,0.58324267578125,-0.8203061819076538,0.20774172246456146,0.15501634776592255
1667915996346317600,0.593317626953125,-0.8090004920959473,0.28319188952445984,0.16142360866069794
1667915996356392700,0.603392822265625,-0.8000983595848083,0.3422227203845978,0.15792688727378845
1667915996366467800,0.6134677734375,-0.7684224843978882,0.342699259519577,0.14232584834098816
1667915996376542500,0.62354248046875,-0.7163171768188477,0.4127422571182251,0.12449625879526138
1667915996386617600,0.63361767578125,-0.6973220109939575,0.5430138111114502,0.0996495932340622
1667915996396692500,0.6436923828125,-0.7430276870727539,0.622077465057373,0.05589385703206062
1667915996406766600,0.6537666015625,-0.8348602652549744,0.6850594282150269,-0.004948387388139963
1667915996416841500,0.663841552734375,-0.9241030216217041,0.7968744039535522,-0.07630379498004913
1667915996426916600,0.67391650390625,-1.0053671598434448,0.9138059020042419,-0.14511838555335999
1667915996436991700,0.68399169921875,-1.0734009742736816,0.9975511431694031,-0.21290995180606842
1667915996447066600,0.694066650390625,-1.1494481563568115,0.960020124912262,-0.2823958694934845
1667915996457141800,0.704141845703125,-1.1643532514572144,0.6123388409614563,-0.2468373328447342
1667915996467215600,0.714215576171875,-0.9558559656143188,0.6997637748718262,-0.2052507996559143
1667915996477290800,0.724290771484375,-0.672066330909729,0.73647540807724,-0.16133368015289307
1667915996487365600,0.73436572265625,-0.42949557304382324,0.9614343047142029,-0.10005903989076614
1667915996497440500,0.7444404296875,-0.2504299581050873,1.1297335624694824,-0.03619297593832016
1667915996507515600,0.754515625,-0.16371546685695648,1.2426278591156006,0.023893430829048157
1667915996517590500,0.764590576171875,-0.1768975853919983,1.2525757551193237,0.06909260153770447
1667915996527665700,0.774665771484375,-0.2509832978248596,1.1966440677642822,0.10673614591360092
1667915996537739500,0.784739501953125,-0.35977211594581604,1.1669846773147583,0.1185493990778923
1667915996547814700,0.794814697265625,-0.44330042600631714,1.1536402702331543,0.10345686227083206
1667915996557889800,0.804889892578125,-0.49192413687705994,1.1211435794830322,0.09489453583955765
1667915996567964700,0.814964599609375,-0.5140652656555176,1.0721384286880493,0.1263125091791153
1667915996578039600,0.82503955078125,-0.5598388910293579,0.9806500673294067,0.19261537492275238
1667915996588114400,0.835114501953125,-0.6554917097091675,0.8435086607933044,0.27313852310180664
1667915996598188500,0.8451884765625,-0.8014627695083618,0.7146987318992615,0.33764535188674927
1667915996608263400,0.855263427734375,-0.9536867141723633,0.6242691874504089,0.3528546988964081
1667915996618338600,0.865338623046875,-1.0675959587097168,0.5415405035018921,0.34481969475746155
1667915996628413700,0.87541357421875,-1.1456220149993896,0.4183180630207062,0.3201923668384552
1667915996638488600,0.885488525390625,-1.1838066577911377,0.31108373403549194,0.24901939928531647
1667915996648563700,0.895563720703125,-1.1477099657058716,0.32458946108818054,0.12937551736831665
1667915996658638600,0.905638671875,-1.0061088800430298,0.45293518900871277,-0.021218519657850266
1667915996668712700,0.915712646484375,-0.7593989372253418,0.6722862720489502,-0.164442241191864
1667915996678787600,0.92578759765625,-0.4767470359802246,0.8714073896408081,-0.2994011342525482
1667915996688862500,0.935862548828125,-0.27324825525283813,0.9251946806907654,-0.4147825539112091
1667915996698937600,0.9459375,-0.2014332115650177,0.9112375974655151,-0.5041787624359131
1667915996709012500,0.956012451171875,-0.23097340762615204,0.8928897380828857,-0.553187370300293
1667915996719087600,0.966087646484375,-0.347446471452713,0.8764902353286743,-0.5822076201438904
1667915996729162800,0.976162841796875,-0.48752740025520325,0.8246914744377136,-0.5996257662773132
1667915996739236600,0.986236572265625,-0.6022925972938538,0.690159797668457,-0.6197482943534851
1667915996749311700,0.996311767578125,-0.6757601499557495,0.5195267796516418,-0.6291801929473877
1667915996759386600,1.00638671875,-0.7184711694717407,0.36169397830963135,-0.6005876660346985
1667915996769461500,1.01646142578125,-0.7463583946228027,0.20865599811077118,-0.5431236624717712
1667915996779536600,1.02653662109375,-0.770681619644165,0.12629294395446777,-0.4598550796508789
1667915996789611500,1.036611572265625,-0.809463381767273,0.15029454231262207,-0.3757934272289276
1667915996799685600,1.046685546875,-0.86467045545578,0.24395844340324402,-0.31258195638656616
1667915996809760500,1.056760498046875,-0.9046440720558167,0.3393537402153015,-0.27892035245895386
1667915996819835600,1.066835693359375,-0.906192421913147,0.38413265347480774,-0.25591251254081726
1667915996829910500,1.07691064453125,-0.8713511228561401,0.29234862327575684,-0.2580701410770416
1667915996839985700,1.086985595703125,-0.8185999989509583,0.05842479318380356,-0.27929073572158813
1667915996850060800,1.097060791015625,-0.7637469172477722,-0.21980442106723785,-0.3198072612285614
1667915996860134700,1.107134765625,-0.7255845665931702,-0.4784913659095764,-0.37105900049209595
1667915996870209800,1.117209716796875,-0.7233023643493652,-0.6032010912895203,-0.4232123792171478
1667915996880284700,1.12728466796875,-0.7570723295211792,-0.5809333324432373,-0.46905362606048584
1667915996890359600,1.137359619140625,-0.7850492596626282,-0.45040348172187805,-0.49313196539878845
1667915996900434400,1.147434326171875,-0.7810057401657104,-0.33798718452453613,-0.48714253306388855
1667915996910509600,1.157509521484375,-0.7758857011795044,-0.254599392414093,-0.4607622027397156
1667915996920584700,1.167584716796875,-0.7527651786804199,-0.2244017869234085,-0.42659837007522583
1667915996930658600,1.177658447265625,-0.7049895524978638,-0.29776129126548767,-0.4075387418270111
1667915996940733700,1.187733642578125,-0.6271067261695862,-0.4140298664569855,-0.4127737283706665
1667915996950808600,1.19780859375,-0.5206475257873535,-0.5280883312225342,-0.4422507882118225
1667915996960883700,1.2078837890625,-0.39213964343070984,-0.535494863986969,-0.4983518719673157
1667915996970958600,1.21795849609375,-0.29451149702072144,-0.44156500697135925,-0.5607776045799255
1667915996981033500,1.228033447265625,-0.2643722593784332,-0.30045315623283386,-0.6045565009117126
1667915996991107600,1.238107666015625,-0.2906034588813782,-0.1722617745399475,-0.6218037009239197
1667915997001182500,1.248182373046875,-0.36034178733825684,-0.07929029315710068,-0.605704665184021
1667915997011257600,1.258257568359375,-0.48171544075012207,-0.0029853512533009052,-0.5618519186973572
1667915997021332500,1.26833251953125,-0.6264448761940002,0.04022496938705444,-0.4969562888145447
1667915997031407600,1.27840771484375,-0.7361671924591064,0.06334152817726135,-0.403746634721756
1667915997041482800,1.288482666015625,-0.7904213666915894,0.06223205476999283,-0.3059298098087311
1667915997051556600,1.298556640625,-0.7923666834831238,0.08024410158395767,-0.22796350717544556
1667915997061631700,1.3086318359375,-0.7400084137916565,0.0739840716123581,-0.18263384699821472
1667915997071706600,1.31870654296875,-0.655853271484375,0.006948075257241726,-0.1816200315952301
1667915997081781500,1.328781494140625,-0.5683335661888123,-0.10727330297231674,-0.2121100276708603
1667915997091856600,1.338856689453125,-0.48000115156173706,-0.21476192772388458,-0.26231980323791504
1667915997101931500,1.348931640625,-0.40077078342437744,-0.3012440800666809,-0.32469502091407776
1667915997112006700,1.359006591796875,-0.3635011911392212,-0.3668646216392517,-0.37300124764442444
1667915997122080500,1.36908056640625,-0.3687731921672821,-0.41981783509254456,-0.4046584963798523
1667915997132155600,1.37915576171875,-0.3960054814815521,-0.4191916584968567,-0.411703497171402
1667915997142230500,1.38923046875,-0.4392640292644501,-0.36539551615715027,-0.4067596197128296
1667915997152305700,1.3993056640625,-0.4863325357437134,-0.24306829273700714,-0.3971959054470062
1667915997162380800,1.409380859375,-0.5317055583000183,-0.05843931436538696,-0.38506174087524414
1667915997172455400,1.419455322265625,-0.5796206593513489,0.0679536908864975,-0.3638771176338196
1667915997182529800,1.42952978515625,-0.6210599541664124,0.0982106626033783,-0.3287374973297119
1667915997192604400,1.4396044921875,-0.6440500020980835,0.06722329556941986,-0.2914412021636963
1667915997202679600,1.449679443359375,-0.6867340803146362,-0.02196357026696205,-0.2678711712360382
1667915997212754400,1.45975439453125,-0.7476518750190735,-0.11258908361196518,-0.25617843866348267
1667915997222829600,1.46982958984375,-0.8138476610183716,-0.13129353523254395,-0.25241777300834656
1667915997232904700,1.47990478515625,-0.8851496577262878,-0.10340776294469833,-0.25483211874961853
1667915997242978600,1.489978515625,-0.9562522768974304,-0.05956147983670235,-0.25701218843460083
1667915997253053700,1.5000537109375,-1.0183827877044678,-0.013162887655198574,-0.24979814887046814
1667915997263128600,1.510128662109375,-1.0664153099060059,0.011780545115470886,-0.24014444649219513
1667915997273203700,1.52020361328125,-1.0823416709899902,-0.0017707869410514832,-0.23584604263305664
1667915997283278600,1.530278564453125,-1.087830901145935,0.009069078601896763,-0.23061984777450562
1667915997293353500,1.540353515625,-1.0849868059158325,0.062032364308834076,-0.21539875864982605
1667915997303427600,1.550427490234375,-1.076892375946045,0.15132921934127808,-0.20669955015182495
1667915997313502500,1.56050244140625,-1.0436298847198486,0.251275897026062,-0.19911500811576843
1667915997323577600,1.57057763671875,-0.9821287393569946,0.2905884087085724,-0.17820945382118225
1667915997333652500,1.580652587890625,-0.8882834911346436,0.23356926441192627,-0.16367360949516296
1667915997343727400,1.590727294921875,-0.7863222360610962,0.11141247302293777,-0.1516001671552658
1667915997353802200,1.60080224609375,-0.7080327272415161,-0.020463677123188972,-0.15227611362934113
1667915997363877400,1.61087744140625,-0.6758438944816589,-0.09071840345859528,-0.16820448637008667
1667915997373951200,1.620951171875,-0.6935268044471741,-0.017552994191646576,-0.2033989429473877
1667915997384026400,1.6310263671875,-0.7447606921195984,0.1623067855834961,-0.26084253191947937
1667915997394101500,1.6411015625,-0.81534743309021,0.36439844965934753,-0.32168030738830566
1667915997404176100,1.651176025390625,-0.88885498046875,0.5330638885498047,-0.3845306634902954
1667915997414251300,1.661251220703125,-0.9571438431739807,0.6527428030967712,-0.4447305202484131
1667915997424326400,1.671326416015625,-1.0156556367874146,0.7127872109413147,-0.5010949969291687
1667915997434400300,1.681400146484375,-1.0661042928695679,0.7284032702445984,-0.5288012027740479
1667915997444475400,1.691475341796875,-1.1002484560012817,0.7532327175140381,-0.5242738723754883
1667915997454550300,1.70155029296875,-1.1201541423797607,0.7592078447341919,-0.47703444957733154
1667915997464625400,1.71162548828125,-1.1023017168045044,0.7371145486831665,-0.4056873023509979
1667915997474700300,1.7217001953125,-1.058278203010559,0.6864702105522156,-0.31404542922973633
1667915997484775400,1.731775390625,-1.0041252374649048,0.6259661316871643,-0.2334355264902115
1667915997494849300,1.741849365234375,-0.9554394483566284,0.5718475580215454,-0.1650320142507553
1667915997504924400,1.75192431640625,-0.9231757521629333,0.5361322164535522,-0.12114524841308594
1667915997514999300,1.761999267578125,-0.9316041469573975,0.5174723863601685,-0.10931176692247391
1667915997525074200,1.77207421875,-0.9512428045272827,0.5427410006523132,-0.13505840301513672
1667915997535149300,1.7821494140625,-0.9753831624984741,0.6042236089706421,-0.18945151567459106
1667915997545224400,1.792224365234375,-0.9944915771484375,0.6856585144996643,-0.2701444923877716
1667915997555299300,1.80229931640625,-1.0205466747283936,0.7631649971008301,-0.3533567190170288
1667915997565373400,1.81237353515625,-1.0320699214935303,0.7625591158866882,-0.4206864833831787
1667915997575448300,1.8224482421875,-1.0264208316802979,0.6856560111045837,-0.4393696188926697
1667915997585523500,1.8325234375,-1.0012614727020264,0.5528825521469116,-0.4256351590156555
1667915997595598300,1.842598388671875,-0.9704661965370178,0.3955373167991638,-0.38729363679885864
1667915997605673200,1.852673095703125,-0.9388515949249268,0.23415455222129822,-0.3289267420768738
1667915997615748400,1.862748291015625,-0.9105156064033508,0.13618449866771698,-0.2637231647968292
1667915997625822200,1.872822265625,-0.8778711557388306,0.07891882956027985,-0.19377683103084564
1667915997635897300,1.8828974609375,-0.8497962951660156,0.050891805440187454,-0.12984608113765717
1667915997645972200,1.89297216796875,-0.843474268913269,0.017739178612828255,-0.09914781898260117
1667915997656047400,1.90304736328125,-0.8498783707618713,0.012523860670626163,-0.08839262276887894
1667915997666122200,1.913122314453125,-0.8705136179924011,0.06911709904670715,-0.1021110936999321
1667915997676197400,1.923197265625,-0.9283846616744995,0.194041445851326,-0.13620086014270782
1667915997686271500,1.933271484375,-0.9995118379592896,0.3669801950454712,-0.20152446627616882
1667915997696346400,1.943346435546875,-1.0542612075805664,0.5430546402931213,-0.2625540792942047
1667915997706421200,1.953421142578125,-1.0925073623657227,0.68825364112854,-0.30649811029434204
1667915997716496100,1.96349609375,-1.1076911687850952,0.744976282119751,-0.307657390832901
1667915997726571300,1.9735712890625,-1.1045001745224,0.7249458432197571,-0.26412537693977356
1667915997736646400,1.983646484375,-1.0914949178695679,0.6228519678115845,-0.1991782784461975
1667915997746720300,1.99372021484375,-1.0542839765548706,0.55332350730896,-0.11444076150655746
1667915997756795400,2.00379541015625,-1.0243382453918457,0.5588441491127014,-0.04656880721449852
1667915997766870300,2.013870361328125,-1.0255608558654785,0.5703407526016235,-0.004640530329197645
1667915997776945400,2.0239453125,-1.0450737476348877,0.5909537076950073,0.009031992405653
1667915997787020300,2.034020263671875,-1.084446668624878,0.6362356543540955,0.006647398229688406
1667915997797095400,2.044095458984375,-1.1169183254241943,0.670978844165802,-0.014238244853913784
1667915997807169300,2.054169189453125,-1.1395617723464966,0.6788197755813599,-0.04306403174996376
1667915997817244400,2.064244384765625,-1.1377356052398682,0.6367998123168945,-0.06374970823526382
1667915997827319300,2.0743193359375,-1.1334116458892822,0.5110815763473511,-0.07394029200077057
1667915997837394200,2.084394287109375,-1.129019021987915,0.36473241448402405,-0.06634417176246643
1667915997847469300,2.09446923828125,-1.1195437908172607,0.26898059248924255,-0.052285078912973404
1667915997857544400,2.10454443359375,-1.0971033573150635,0.2198181301355362,-0.03413119539618492
1667915997867619300,2.114619384765625,-1.067832589149475,0.20759768784046173,-0.02671082876622677
1667915997877693400,2.124693359375,-1.0309052467346191,0.23616379499435425,-0.02043713629245758
1667915997887768300,2.134768310546875,-1.0060148239135742,0.26376691460609436,-0.007246232591569424
1667915997897843500,2.144843505859375,-0.9877001047134399,0.29406359791755676,0.015237037092447281
1667915997907918300,2.15491845703125,-0.964377224445343,0.2972087860107422,0.0345633290708065
1667915997917993200,2.1649931640625,-0.9431182742118835,0.2632739543914795,0.06376810371875763
1667915997928068400,2.175068359375,-0.937849760055542,0.19309750199317932,0.08348561823368073
1667915997938142200,2.18514208984375,-0.9566203355789185,0.0675637274980545,0.09667263925075531
1667915997948217300,2.19521728515625,-0.9810604453086853,-0.07298833131790161,0.09051141142845154
1667915997958292200,2.205292236328125,-0.993247389793396,-0.11391007155179977,0.06733106076717377
1667915997968367400,2.215367431640625,-0.995563805103302,-0.04956463724374771,0.032257236540317535
1667915997978442500,2.2254423828125,-0.9886513352394104,0.04513624310493469,-0.006228613667190075
1667915997988517400,2.235517333984375,-0.9646634459495544,0.11864029616117477,-0.043023113161325455
1667915997998591500,2.245591552734375,-0.9296905994415283,0.19448409974575043,-0.03848451003432274
1667915998008666400,2.255666259765625,-0.9077157974243164,0.22405850887298584,-0.011504024267196655
1667915998018741200,2.2657412109375,-0.8927580118179321,0.1413654088973999,0.024349957704544067
1667915998028816100,2.275816162109375,-0.8712093234062195,-0.02810591645538807,0.03943010792136192
1667915998038891300,2.285891357421875,-0.8472849130630493,-0.14633366465568542,0.017503367736935616
1667915998048966400,2.29596630859375,-0.8355683088302612,-0.14120042324066162,-0.03073127381503582
1667915998059040300,2.306040283203125,-0.8369360566139221,-0.12576435506343842,-0.07339892536401749
1667915998069115400,2.316115478515625,-0.8213675022125244,-0.16494345664978027,-0.09760572761297226
1667915998079190300,2.326190185546875,-0.7906925082206726,-0.29082831740379333,-0.094141885638237
1667915998089265400,2.336265380859375,-0.765187680721283,-0.5013520121574402,-0.07161473482847214
1667915998099340300,2.34634033203125,-0.7472990155220032,-0.7193523645401001,-0.05582587793469429
1667915998109415200,2.356415283203125,-0.7089702486991882,-0.7271569967269897,-0.06690569221973419
1667915998119489500,2.366489501953125,-0.6796509027481079,-0.5952763557434082,-0.08776447921991348
1667915998129564200,2.376564208984375,-0.6697620153427124,-0.4544007182121277,-0.10404437780380249
1667915998139639300,2.386639404296875,-0.6747696399688721,-0.39322876930236816,-0.11434917896986008
1667915998149714200,2.396714111328125,-0.6803225874900818,-0.380767285823822,-0.12219325453042984
1667915998159789300,2.406789306640625,-0.6855895519256592,-0.33374303579330444,-0.11135122925043106
1667915998169864400,2.416864501953125,-0.7027000784873962,-0.27421045303344727,-0.0879359170794487
1667915998179938300,2.426938232421875,-0.7060822248458862,-0.22344613075256348,-0.03377740830183029
1667915998190013400,2.437013427734375,-0.6808485388755798,-0.18261614441871643,0.04476586729288101
1667915998200088300,2.44708837890625,-0.6491248607635498,-0.1496160924434662,0.1169869527220726
1667915998210163500,2.45716357421875,-0.624459445476532,-0.10344407707452774,0.15834397077560425
1667915998220238300,2.46723828125,-0.623414158821106,-0.02918100915849209,0.15462251007556915
1667915998230313200,2.477313232421875,-0.6376727223396301,0.026786386966705322,0.11167638003826141
1667915998240387300,2.48738720703125,-0.6532422304153442,0.0730048343539238,0.04479014873504639
1667915998250462200,2.497462158203125,-0.6799952983856201,0.09183258563280106,-0.028024669736623764
1667915998260537300,2.507537353515625,-0.7084425091743469,0.057694654911756516,-0.09827021509408951
1667915998270612200,2.5176123046875,-0.7336064577102661,-0.03943987935781479,-0.16674940288066864
1667915998280687400,2.527687255859375,-0.7545301914215088,-0.13464346528053284,-0.22257205843925476
1667915998290762500,2.537762451171875,-0.7776797413825989,-0.19348733127117157,-0.24840231239795685
1667915998300837400,2.54783740234375,-0.8032569289207458,-0.24340569972991943,-0.24106916785240173
1667915998310911500,2.557911376953125,-0.8386188745498657,-0.3391604423522949,-0.21235762536525726
1667915998320986400,2.567986328125,-0.867516040802002,-0.4616997241973877,-0.15428470075130463
1667915998331061200,2.578061279296875,-0.8672683835029602,-0.5275043249130249,-0.0775822103023529
1667915998341140000,2.588139892578125,-0.8407391309738159,-0.4974639415740967,0.006483979057520628
1667915998351214800,2.59821484375,-0.7870990633964539,-0.41743674874305725,0.0791989266872406
1667915998361290000,2.6082900390625,-0.7119858860969543,-0.29202285408973694,0.13699929416179657
1667915998371363800,2.61836376953125,-0.6430233120918274,-0.13492140173912048,0.17511658370494843
1667915998381439000,2.62843896484375,-0.6132302284240723,-0.012634176760911942,0.18786299228668213
1667915998391513900,2.638513916015625,-0.6157791018486023,0.02576993778347969,0.17759224772453308
1667915998401589000,2.648589111328125,-0.6466488242149353,-0.018718481063842773,0.13870097696781158
1667915998411664100,2.6586640625,-0.7007288336753845,-0.10102826356887817,0.08042889088392258
1667915998421738800,2.66873876953125,-0.7627012729644775,-0.14706991612911224,0.009674660861492157
1667915998431813000,2.678813232421875,-0.8165373206138611,-0.17199470102787018,-0.08085790276527405
1667915998441887700,2.6888876953125,-0.8538128137588501,-0.1918853372335434,-0.1647484451532364
1667915998451963000,2.698962890625,-0.8587657809257507,-0.16690194606781006,-0.2126816213130951
1667915998462038000,2.7090380859375,-0.8403198719024658,-0.10352810472249985,-0.19678929448127747
1667915998472113000,2.71911279296875,-0.8099262714385986,-0.027566764503717422,-0.1294797658920288
1667915998482188000,2.72918798828125,-0.7828449010848999,0.025815758854150772,-0.04259757697582245
1667915998492262000,2.739261962890625,-0.7516686320304871,0.03279856592416763,0.036780864000320435
1667915998502337000,2.7493369140625,-0.723318874835968,-0.003511275164783001,0.10047506541013718
1667915998512412000,2.759411865234375,-0.7144619822502136,-0.07826939970254898,0.13549402356147766
1667915998522487000,2.769487060546875,-0.7277615666389465,-0.18459326028823853,0.14500340819358826
1667915998532562000,2.77956201171875,-0.7575932741165161,-0.2573566734790802,0.1323251575231552
1667915998542636800,2.78963671875,-0.8052858114242554,-0.2810159921646118,0.10264972597360611
1667915998552711000,2.7997109375,-0.8419215679168701,-0.23230890929698944,0.04308893531560898
1667915998562785800,2.809785888671875,-0.8526512980461121,-0.16451017558574677,-0.04117739200592041
1667915998572861000,2.81986083984375,-0.8373620510101318,-0.1020721048116684,-0.12845291197299957
1667915998582936000,2.82993603515625,-0.8251587152481079,-0.07855457812547684,-0.20618502795696259
1667915998593011000,2.840010986328125,-0.8164322972297668,-0.09683611243963242,-0.26549550890922546
1667915998603086000,2.850086181640625,-0.8263428807258606,-0.15158286690711975,-0.29701411724090576
1667915998613160000,2.860159912109375,-0.8554802536964417,-0.21111544966697693,-0.3011992871761322
1667915998623235000,2.870235107421875,-0.8873027563095093,-0.26767846941947937,-0.276529997587204
1667915998633310000,2.88031005859375,-0.8967521786689758,-0.31513094902038574,-0.2054707407951355
1667915998643384800,2.890384765625,-0.8884851336479187,-0.3092118203639984,-0.10713861137628555
1667915998653460000,2.9004599609375,-0.8662999868392944,-0.25972363352775574,-0.021168842911720276
1667915998663534800,2.910534912109375,-0.8287809491157532,-0.18872947990894318,0.04394102469086647
1667915998673609000,2.92060888671875,-0.8035048842430115,-0.15526898205280304,0.06972920894622803
1667915998683683800,2.930683837890625,-0.7853822112083435,-0.15376833081245422,0.05677177384495735
1667915998693759000,2.940759033203125,-0.7649254202842712,-0.14310264587402344,0.019010281190276146
1667915998703834000,2.950834228515625,-0.7412434220314026,-0.1160336509346962,-0.040539443492889404
1667915998713909000,2.960908935546875,-0.7168709635734558,-0.08999752253293991,-0.1221110001206398
1667915998723984100,2.970984130859375,-0.7079421281814575,-0.09312708675861359,-0.19612769782543182
1667915998734058000,2.98105810546875,-0.7065871357917786,-0.12650129199028015,-0.2517955005168915
1667915998744133000,2.991133056640625,-0.7101442217826843,-0.14165356755256653,-0.2845924198627472
1667915998754207700,3.001207763671875,-0.7022921442985535,-0.1547728329896927,-0.2743501663208008
1667915998764283000,3.011282958984375,-0.6794943809509277,-0.17658747732639313,-0.21800467371940613
1667915998774358000,3.02135791015625,-0.6527610421180725,-0.19094164669513702,-0.1334216147661209
1667915998784433000,3.031432861328125,-0.6242619752883911,-0.17681822180747986,-0.05566480755805969
1667915998794507000,3.041507080078125,-0.5986202359199524,-0.10422017425298691,-0.004489505663514137
1667915998804582000,3.051581787109375,-0.5708397626876831,-0.027076900005340576,0.03425233066082001
1667915998814657000,3.061656982421875,-0.5360594391822815,0.03559127449989319,0.05478023737668991
1667915998824732000,3.07173193359375,-0.4831183850765228,0.09270765632390976,0.06284445524215698
1667915998834807000,3.08180712890625,-0.4374270439147949,0.13334697484970093,0.04854460805654526
1667915998844882000,3.0918818359375,-0.41010820865631104,0.1333291083574295,0.015660811215639114
1667915998854956000,3.1019560546875,-0.39895302057266235,0.09929364919662476,-0.021352332085371017
1667915998865031000,3.112031005859375,-0.3890646994113922,0.03261253982782364,-0.059257086366415024
1667915998875105800,3.122105712890625,-0.37960514426231384,-0.05705689638853073,-0.1024777963757515
1667915998885181000,3.132180908203125,-0.3802792429924011,-0.15592651069164276,-0.12953785061836243
1667915998895256000,3.142256103515625,-0.38831984996795654,-0.2577684819698334,-0.14535276591777802
1667915998905331000,3.1523310546875,-0.38955894112586975,-0.2745605409145355,-0.13074354827404022
1667915998915405000,3.162405029296875,-0.38057395815849304,-0.23245705664157867,-0.09507664293050766
1667915998925480000,3.17247998046875,-0.36018824577331543,-0.2148972451686859,-0.04490405321121216
1667915998935555000,3.18255517578125,-0.319612056016922,-0.2426023781299591,0.023340515792369843
1667915998945630000,3.1926298828125,-0.2724999487400055,-0.34011828899383545,0.10264012962579727
1667915998955704800,3.202704833984375,-0.23467186093330383,-0.4744156301021576,0.17151294648647308
1667915998965779000,3.212779052734375,-0.20509421825408936,-0.5970655083656311,0.2269412726163864
1667915998975853800,3.222853759765625,-0.17273227870464325,-0.6358249187469482,0.2582520544528961
1667915998985929000,3.232928955078125,-0.1487535834312439,-0.6119979619979858,0.26202481985092163
1667915998996003800,3.24300390625,-0.1161985769867897,-0.5280716419219971,0.24715453386306763
1667915999006079000,3.253078857421875,-0.0680667906999588,-0.39193838834762573,0.2195032835006714
1667915999016154000,3.263154052734375,-0.03428991883993149,-0.22238613665103912,0.19271720945835114
1667915999026228000,3.27322802734375,-0.04395423084497452,-0.04180777445435524,0.16381171345710754
1667915999036303000,3.28330322265625,-0.08420871198177338,0.09136173129081726,0.11226385086774826
1667915999046378000,3.2933779296875,-0.15404444932937622,0.11837588250637054,0.035791631788015366
1667915999056452900,3.303452880859375,-0.24815817177295685,0.03344341740012169,-0.052360061556100845
1667915999066527700,3.31352783203125,-0.35028311610221863,-0.12979505956172943,-0.1315246820449829
1667915999076603000,3.323602783203125,-0.43238386511802673,-0.30498629808425903,-0.1990739107131958
1667915999086676700,3.3336767578125,-0.4728914201259613,-0.4171479344367981,-0.24747039377689362
1667915999096751900,3.343751953125,-0.4538940191268921,-0.4440504014492035,-0.27692946791648865
1667915999106827000,3.353826904296875,-0.3935476541519165,-0.4560990631580353,-0.2842494249343872
1667915999116902000,3.36390185546875,-0.29780060052871704,-0.47216299176216125,-0.26165542006492615
1667915999126977000,3.37397705078125,-0.18088099360466003,-0.47660622000694275,-0.20406608283519745
1667915999137052000,3.384052001953125,-0.05970688909292221,-0.48294562101364136,-0.13492216169834137
1667915999147126000,3.3941259765625,0.06137405335903168,-0.4979328513145447,-0.061591289937496185
1667915999157201200,3.404201171875,0.13891491293907166,-0.4807339012622833,-0.006884635426104069
1667915999167276000,3.414276123046875,0.13841398060321808,-0.4571046531200409,0.010210737586021423
1667915999177351000,3.424350830078125,0.08951541036367416,-0.38829654455184937,0.006021319422870874
1667915999187425800,3.43442578125,0.017123153433203697,-0.2580547332763672,-0.005555657669901848
1667915999197501000,3.4445009765625,-0.055988609790802,-0.09354913979768753,-0.019025661051273346
1667915999207574800,3.45457470703125,-0.1142740249633789,0.06559891253709793,-0.017810968682169914
1667915999217650000,3.46464990234375,-0.15930300951004028,0.19623680412769318,-0.0031292270869016647
1667915999227725000,3.47472509765625,-0.19042861461639404,0.27974778413772583,0.009708963334560394
1667915999237800000,3.484800048828125,-0.2207990437746048,0.3171534836292267,0.013942589983344078
1667915999247875000,3.494875,-0.2475803643465042,0.3047071695327759,0.005918276961892843
1667915999257949000,3.504948974609375,-0.2812512218952179,0.2456853836774826,-0.02634458802640438
1667915999268024000,3.515024169921875,-0.320545494556427,0.18434537947177887,-0.0649520754814148
1667915999278099000,3.525098876953125,-0.3375697433948517,0.11784253269433975,-0.11062635481357574
1667915999288173800,3.535173828125,-0.3319438397884369,0.026014886796474457,-0.1473291963338852
1667915999298249000,3.5452490234375,-0.2853688895702362,-0.024884512647986412,-0.1604282259941101
1667915999308323800,3.55532373046875,-0.2199292629957199,-0.03725350275635719,-0.15430313348770142
1667915999318398000,3.56539794921875,-0.161384716629982,-0.051279570907354355,-0.1451335847377777
1667915999328472800,3.575472900390625,-0.1264461874961853,-0.05654923990368843,-0.15010756254196167
1667915999338548000,3.5855478515625,-0.11088746041059494,-0.06182576343417168,-0.15980200469493866
1667915999348619500,3.59561962890625,-0.10704780369997025,-0.04838091880083084,-0.16245736181735992
1667915999358694400,3.6056943359375,-0.10365254431962967,-0.019167909398674965,-0.15745194256305695
1667915999368769300,3.615769287109375,-0.07630998641252518,0.0511849969625473,-0.14825138449668884
1667915999378843400,3.625843505859375,-0.050242699682712555,0.12091799825429916,-0.13818970322608948
1667915999388918300,3.635918212890625,-0.02391347661614418,0.1576957255601883,-0.1085486114025116
1667915999398993200,3.6459931640625,0.01754128932952881,0.18705840408802032,-0.06744564324617386
1667915999409068300,3.656068359375,0.05499617010354996,0.17579060792922974,-0.027309611439704895
1667915999419143400,3.666143310546875,0.09231317788362503,0.15109512209892273,-0.0012154262512922287
1667915999429217300,3.67621728515625,0.11568839102983475,0.09248793125152588,0.0022151609882712364
1667915999439292400,3.68629248046875,0.11393256485462189,-0.0008079288527369499,-0.014288181439042091
1667915999449367300,3.6963671875,0.08841593563556671,-0.08886369317770004,-0.049388013780117035
1667915999459442400,3.7064423828125,0.0389876663684845,-0.13850528001785278,-0.09780588746070862
1667915999469517600,3.716517578125,-0.02142883464694023,-0.1450207680463791,-0.14433526992797852
1667915999479592400,3.726592529296875,-0.050085246562957764,-0.08282104879617691,-0.1675599068403244
1667915999489666600,3.73666650390625,-0.04760723561048508,0.0020482493564486504,-0.18744274973869324
1667915999499741400,3.746741455078125,-0.014993363991379738,0.09257414937019348,-0.19612251222133636
1667915999509816300,3.75681640625,0.029906850308179855,0.15566737949848175,-0.19262057542800903
1667915999519891200,3.76689111328125,0.06495298445224762,0.1737252175807953,-0.1763949990272522
1667915999529966300,3.77696630859375,0.08492657542228699,0.14610102772712708,-0.13575318455696106
1667915999540041500,3.78704150390625,0.07824549823999405,0.11229592561721802,-0.08570573478937149
1667915999550115300,3.797115234375,0.06720010191202164,0.06558537483215332,-0.027626782655715942
1667915999560190500,3.8071904296875,0.05652828514575958,0.020185664296150208,0.024228958413004875
1667915999570265300,3.817265380859375,0.06028452143073082,0.02593810483813286,0.06689241528511047
1667915999580340500,3.827340576171875,0.05818062648177147,0.03633508458733559,0.09864368289709091
1667915999590415400,3.837415283203125,0.053033772855997086,0.05140264332294464,0.10303019732236862
1667915999600489500,3.847489501953125,0.0353035107254982,0.06751476973295212,0.09256903827190399
1667915999610564400,3.857564453125,0.001562977209687233,0.0852905735373497,0.062258414924144745
1667915999620639200,3.86763916015625,-0.054867807775735855,0.11734331399202347,0.016487468034029007
1667915999630714400,3.87771435546875,-0.1135333999991417,0.15808233618736267,-0.03843660652637482
1667915999640789200,3.887789306640625,-0.15350797772407532,0.15721121430397034,-0.08073533326387405
1667915999650864400,3.897864501953125,-0.1710699498653412,0.10515592992305756,-0.10014842450618744
1667915999660938200,3.907938232421875,-0.16509249806404114,0.0000657280907034874,-0.09969568252563477
1667915999671013400,3.918013427734375,-0.1604231745004654,-0.08042262494564056,-0.08598732203245163
1667915999681088500,3.928088623046875,-0.1601371467113495,-0.10780524462461472,-0.07585718482732773
1667915999691163400,3.938163330078125,-0.1507585048675537,-0.07011819630861282,-0.06077391281723976
1667915999701238300,3.94823828125,-0.13166789710521698,0.0040060970932245255,-0.042026858776807785
1667915999711312400,3.9583125,-0.10362724214792252,0.040818728506565094,-0.008062200620770454
1667915999721387300,3.96838720703125,-0.07637617737054825,0.03629082441329956,0.04347795620560646
1667915999731462100,3.978462158203125,-0.06311118602752686,0.0075581250712275505,0.0975818932056427
1667915999741537300,3.988537353515625,-0.07558543235063553,-0.023181412369012833,0.12326834350824356
1667915999751612400,3.9986123046875,-0.1075158417224884,-0.02348313480615616,0.10904167592525482
1667915999761687300,4.008687255859375,-0.15249504148960114,0.016259219497442245,0.05824188143014908
1667915999771761400,4.018761474609375,-0.18574444949626923,0.09465895593166351,0.004259434994310141
1667915999781836300,4.028836181640625,-0.20026107132434845,0.19117005169391632,-0.0411011204123497
1667915999791911400,4.038911376953125,-0.19586528837680817,0.25728872418403625,-0.07078177481889725
1667915999801986600,4.048986572265625,-0.17985941469669342,0.2852489948272705,-0.0824003517627716
1667915999812061200,4.059061279296875,-0.1583188772201538,0.24319787323474884,-0.07397580146789551
1667915999822135600,4.069135498046875,-0.13334986567497253,0.1397460401058197,-0.049273114651441574
1667915999832210200,4.079210205078125,-0.0978183001279831,0.035968195647001266,-0.013950226828455925
1667915999842285300,4.089285400390625,-0.07311055809259415,-0.0003261631354689598,0.029206829145550728
1667915999852360200,4.099360107421875,-0.05494030937552452,0.039888881146907806,0.07039018720388412
1667915999862435300,4.109435302734375,-0.026720121502876282,0.12523041665554047,0.10000719875097275
1667915999872510500,4.119510498046875,0.012631279416382313,0.18229103088378906,0.13468049466609955
1667915999882584300,4.129584228515625,0.04848967492580414,0.1897159218788147,0.15656130015850067
1667915999892659500,4.139659423828125,0.07255974411964417,0.17326973378658295,0.15393608808517456
1667915999902734300,4.149734375,0.08065548539161682,0.16687043011188507,0.12908613681793213
1667915999912809500,4.1598095703125,0.0694572776556015,0.12433718144893646,0.08232434093952179
1667915999922884400,4.16988427734375,0.04846490919589996,0.0694209411740303,0.01614319533109665
1667915999932958500,4.17995849609375,0.023336948826909065,0.013477404601871967,-0.06002349406480789
1667915999943033300,4.190033447265625,-0.022037722170352936,-0.0820605680346489,-0.13556085526943207
1667915999953108200,4.200108154296875,-0.08223912864923477,-0.2283799946308136,-0.17909465730190277
1667915999963183400,4.210183349609375,-0.14792226254940033,-0.4012335240840912,-0.18717922270298004
1667915999973258200,4.22025830078125,-0.2123984843492508,-0.5632558465003967,-0.16763663291931152
1667915999983332400,4.230332275390625,-0.2600853443145752,-0.6661497354507446,-0.13669070601463318
1667915999993407200,4.2404072265625,-0.2567744851112366,-0.6933523416519165,-0.0999143198132515
1667916000003482400,4.250482421875,-0.1906641721725464,-0.6265450716018677,-0.05774342641234398
1667916000013557500,4.2605576171875,-0.07933905720710754,-0.44313889741897583,-0.016373276710510254
1667916000023632400,4.27063232421875,0.04751395806670189,-0.1970614790916443,0.01981881633400917
1667916000033707300,4.280707275390625,0.14782936871051788,0.06660513579845428,0.07542882114648819
1667916000043781400,4.290781494140625,0.1912258416414261,0.2934521436691284,0.15112252533435822
1667916000053856300,4.300856201171875,0.16956526041030884,0.4291874170303345,0.22917182743549347
1667916000063931400,4.310931396484375,0.09220203757286072,0.45340728759765625,0.28952836990356445
1667916000074006300,4.32100634765625,-0.011438874527812004,0.37452924251556396,0.31781435012817383
1667916000084081400,4.331081298828125,-0.12025536596775055,0.26531487703323364,0.3036484718322754
1667916000094155300,4.3411552734375,-0.22199243307113647,0.14729036390781403,0.24055370688438416
1667916000104230400,4.35123046875,-0.3063981235027313,0.032005053013563156,0.14645223319530487
1667916000114305300,4.36130517578125,-0.3662337362766266,-0.10704801231622696,0.05103354528546333
1667916000124380400,4.37138037109375,-0.412094384431839,-0.25204965472221375,-0.033229753375053406
1667916000134454300,4.381454345703125,-0.4431665539741516,-0.39394792914390564,-0.1030956581234932
1667916000144529400,4.391529296875,-0.47133323550224304,-0.5298885107040405,-0.1563258022069931
1667916000154604500,4.4016044921875,-0.49750226736068726,-0.6551114320755005,-0.20041656494140625
1667916000164679200,4.41167919921875,-0.5406314134597778,-0.7602986693382263,-0.22444488108158112
1667916000174754300,4.42175439453125,-0.5756442546844482,-0.7862546443939209,-0.24138924479484558
1667916000184828200,4.431828125,-0.5966821908950806,-0.6814424395561218,-0.2572571039199829
1667916000194903300,4.4419033203125,-0.6050722002983093,-0.46243950724601746,-0.2672058641910553
1667916000204978400,4.451978515625,-0.5914164781570435,-0.17782579362392426,-0.26249271631240845
1667916000215053300,4.46205322265625,-0.5369290113449097,0.09224243462085724,-0.2439136952161789
1667916000225128400,4.47212841796875,-0.4529903531074524,0.2927704155445099,-0.1974097043275833
1667916000235202300,4.482202392578125,-0.356562077999115,0.4000081717967987,-0.13976424932479858
1667916000245277400,4.49227734375,-0.2602308988571167,0.4265381693840027,-0.08035560697317123
1667916000255352300,4.502352294921875,-0.16702453792095184,0.46595296263694763,-0.024100057780742645
1667916000265427500,4.512427490234375,-0.09245777130126953,0.5027016401290894,0.02227877639234066
1667916000275502300,4.52250244140625,-0.04941496253013611,0.542256772518158,0.057615190744400024
1667916000285576400,4.532576416015625,-0.013359456323087215,0.5339580774307251,0.08715496212244034
1667916000295651300,4.5426513671875,0.015212533995509148,0.46893882751464844,0.11276871711015701
1667916000305726200,4.552726318359375,0.027985554188489914,0.36249369382858276,0.13223537802696228
1667916000315801300,4.56280126953125,0.02803322672843933,0.20737387239933014,0.1361885666847229
1667916000325876200,4.572876220703125,0.005086928606033325,0.05000357702374458,0.11797356605529785
1667916000335951400,4.582951416015625,-0.04056764021515846,-0.11999159306287766,0.08235219120979309
1667916000346025500,4.593025390625,-0.09754559397697449,-0.2643086314201355,0.030514191836118698
1667916000356100600,4.6031005859375,-0.1309722512960434,-0.343550443649292,-0.010994368232786655
1667916000366175500,4.613175537109375,-0.13317525386810303,-0.3933890163898468,-0.038544729351997375
1667916000376250600,4.623250732421875,-0.1060996949672699,-0.411792516708374,-0.03713884949684143
1667916000386325500,4.633325439453125,-0.07179509848356247,-0.40722787380218506,-0.0071608806028962135
1667916000396399600,4.643399658203125,-0.03347007930278778,-0.40660548210144043,0.039437782019376755
1667916000406474500,4.653474609375,0.010151639580726624,-0.362212598323822,0.0900227278470993
1667916000416549400,4.66354931640625,0.03504393994808197,-0.3275851309299469,0.12913471460342407
1667916000426624500,4.67362451171875,0.05213776230812073,-0.2841885983943939,0.16299408674240112
1667916000436699400,4.683699462890625,0.06878997385501862,-0.19181790947914124,0.17999623715877533
1667916000446773500,4.6937734375,0.0689910426735878,-0.062277764081954956,0.17938236892223358
1667916000456848400,4.703848388671875,0.056170590221881866,0.04758775234222412,0.15987445414066315
1667916000466923500,4.713923583984375,0.0394732765853405,0.10591956228017807,0.1534011960029602
1667916000476998700,4.72399853515625,0.015467279590666294,0.102272629737854,0.15770965814590454
1667916000487073500,4.734073486328125,-0.011102428659796715,0.011223332956433296,0.16039666533470154
1667916000497147600,4.744147705078125,-0.038302358239889145,-0.1202143207192421,0.13669240474700928
1667916000507222500,4.754222412109375,-0.06914090365171432,-0.26317283511161804,0.10641194134950638
1667916000517297400,4.76429736328125,-0.09406755864620209,-0.366996169090271,0.0644431859254837
1667916000527372500,4.77437255859375,-0.09908323734998703,-0.37895527482032776,0.027114586904644966
1667916000537447400,4.784447509765625,-0.09458356350660324,-0.3037979304790497,-0.004674233496189117
1667916000547521500,4.794521484375,-0.07692354917526245,-0.16487400233745575,-0.026369720697402954
1667916000557596400,4.804596435546875,-0.060041774064302444,0.009483423084020615,-0.028613965958356857
1667916000567671600,4.814671630859375,-0.04506906494498253,0.1703619509935379,-0.01217123493552208
1667916000577746400,4.824746337890625,-0.05968768894672394,0.2807379961013794,0.013764757663011551
1667916000587821600,4.834821533203125,-0.11167795211076736,0.3120695650577545,0.027060354128479958
1667916000597896400,4.844896484375,-0.17203210294246674,0.2866978943347931,0.015197569504380226
1667916000607970600,4.854970458984375,-0.22076232731342316,0.23890230059623718,-0.015216277912259102
1667916000618045700,4.865045654296875,-0.24095867574214935,0.21628674864768982,-0.055017486214637756
1667916000628120300,4.875120361328125,-0.22627495229244232,0.1883384883403778,-0.09161316603422165
1667916000638195500,4.885195556640625,-0.1718122363090515,0.13512639701366425,-0.09686758369207382
1667916000648270300,4.895270263671875,-0.08154647052288055,0.0711948499083519,-0.06923041492700577
1667916000658344400,4.905344482421875,0.03365921229124069,0.051208361983299255,-0.00823151133954525
1667916000668419300,4.91541943359375,0.14292491972446442,0.05018984153866768,0.06332048028707504
1667916000678494500,4.925494384765625,0.2240448147058487,0.004022345878183842,0.13805678486824036
1667916000688569600,4.935569580078125,0.2706936001777649,-0.09706791490316391,0.21812544763088226
1667916000698644500,4.94564453125,0.2664349377155304,-0.24053800106048584,0.29895079135894775
1667916000708718600,4.955718505859375,0.20887890458106995,-0.32745251059532166,0.34982815384864807
1667916000718793500,4.96579345703125,0.12085504829883575,-0.27893105149269104,0.36316606402397156
1667916000728868600,4.97586865234375,0.03875484690070152,-0.08832249790430069,0.33839812874794006
1667916000738943500,4.985943603515625,-0.029596157371997833,0.1589544266462326,0.2961994707584381
1667916000749018400,4.996018310546875,-0.08065295219421387,0.38220855593681335,0.2474476397037506
1667916000759093500,5.006093505859375,-0.1263662576675415,0.4953339695930481,0.20511336624622345
1667916000769168400,5.01616845703125,-0.16571900248527527,0.5041279792785645,0.19374938309192657
1667916000779242500,5.026242431640625,-0.20251642167568207,0.39604243636131287,0.2039618045091629
1667916000789317400,5.0363173828125,-0.23076775670051575,0.23183247447013855,0.2160365730524063
1667916000799392500,5.046392578125,-0.2519494295120239,0.05265403538942337,0.2190653532743454
1667916000809467600,5.056467529296875,-0.26217517256736755,-0.09516365081071854,0.201589435338974
1667916000819542500,5.06654248046875,-0.2628137767314911,-0.19769665598869324,0.16993828117847443
1667916000829616600,5.07661669921875,-0.24025388062000275,-0.22236604988574982,0.12894263863563538
1667916000839691500,5.08669140625,-0.21289384365081787,-0.14249861240386963,0.09428393840789795
1667916000849766400,5.096766357421875,-0.1827404648065567,-0.007501371204853058,0.057626061141490936
1667916000859841500,5.106841552734375,-0.15747641026973724,0.166010782122612,0.02221883088350296
1667916000869916400,5.11691650390625,-0.14922647178173065,0.2986050248146057,-0.005453810095787048
1667916000879990500,5.126990478515625,-0.16470098495483398,0.35289841890335083,-0.01710466295480728
1667916000890065400,5.1370654296875,-0.18720336258411407,0.36761584877967834,-0.018506549298763275
1667916000900140500,5.147140625,-0.2128305435180664,0.33021077513694763,-0.025371812283992767
1667916000910215400,5.15721533203125,-0.2361081838607788,0.24693505465984344,-0.0503581203520298
1667916000920290600,5.16729052734375,-0.23549383878707886,0.15072491765022278,-0.08017292618751526
1667916000930364400,5.177364501953125,-0.1708754301071167,0.042869292199611664,-0.10729961842298508
1667916000940439600,5.187439453125,-0.16335241496562958,-0.0808354839682579,-0.13757963478565216
1667916000950514400,5.197514404296875,-0.09735023230314255,-0.18929699063301086,-0.15689420700073242
1667916000960589300,5.20758935546875,-0.034422192722558975,-0.25800198316574097,-0.1705431044101715
1667916000970664400,5.21766455078125,0.020688198506832123,-0.26061561703681946,-0.16181859374046326
1667916000980738300,5.22773828125,0.05423840880393982,-0.18865127861499786,-0.1394892930984497
1667916000990813400,5.2378134765625,0.06412699073553085,-0.07357742637395859,-0.12102986127138138
1667916001000888600,5.247888671875,0.05210527032613754,0.0438452884554863,-0.10308366268873215
1667916001010963500,5.25796337890625,0.024583635851740837,0.12740756571292877,-0.10069534182548523
1667916001021038600,5.26803857421875,-0.0019842679612338543,0.11354728788137436,-0.11762964725494385
1667916001031112400,5.278112548828125,-0.0191347599029541,-0.026630323380231857,-0.1455307900905609
1667916001041187600,5.2881875,-0.011033391579985619,-0.2254650592803955,-0.15854063630104065
1667916001051262500,5.298262451171875,0.019083231687545776,-0.382822185754776,-0.16042882204055786
1667916001061337300,5.30833740234375,0.043477222323417664,-0.423980712890625,-0.14625488221645355
1667916001071412500,5.31841259765625,0.061918288469314575,-0.3499847948551178,-0.12737441062927246
1667916001081486300,5.328486328125,0.0787220299243927,-0.19488494098186493,-0.0974801778793335
1667916001091561500,5.3385615234375,0.0998704582452774,-0.024892430752515793,-0.06830018758773804
1667916001101636400,5.34863623046875,0.11688101291656494,0.1189224123954773,-0.03533225506544113
1667916001111711500,5.35871142578125,0.11389029026031494,0.16927427053451538,0.006880979053676128
1667916001121786600,5.36878662109375,0.08221692591905594,0.15690654516220093,0.05363502353429794
1667916001131860500,5.378860595703125,0.03979223966598511,0.14773380756378174,0.09304900467395782
1667916001141935600,5.388935546875,0.01894799992442131,0.18495500087738037,0.11186018586158752
1667916001152010500,5.399010498046875,0.027982240542769432,0.24340417981147766,0.10205496102571487
1667916001162085600,5.409085693359375,0.07161328196525574,0.30279406905174255,0.08390289545059204
1667916001172160500,5.419160400390625,0.13686658442020416,0.32918813824653625,0.07120733708143234
1667916001182234600,5.429234619140625,0.19106954336166382,0.2819046974182129,0.0822310671210289
1667916001192309500,5.4393095703125,0.21435889601707458,0.14491651952266693,0.13856731355190277
1667916001202384400,5.44938427734375,0.18574175238609314,-0.038215748965740204,0.21239320933818817
1667916001212459500,5.45945947265625,0.12397399544715881,-0.20755603909492493,0.26413604617118835
1667916001222534400,5.469534423828125,0.059227362275123596,-0.30793359875679016,0.2668864130973816
1667916001232608500,5.4796083984375,-0.0009925663471221924,-0.30754104256629944,0.22435010969638824
1667916001242683400,5.489683349609375,-0.050039708614349365,-0.2211253046989441,0.148255854845047
1667916001252758500,5.499758544921875,-0.08082478493452072,-0.0863853394985199,0.05600767582654953
1667916001262833700,5.509833740234375,-0.09386590123176575,0.014617887325584888,-0.010116584599018097
1667916001272907500,5.519907470703125,-0.08303748816251755,0.05269230157136917,-0.016074342653155327
1667916001282982700,5.529982666015625,-0.0587051585316658,0.05702928453683853,0.0285929087549448
1667916001293057500,5.5400576171875,-0.027843117713928223,0.10168623179197311,0.08563994616270065
1667916001303132400,5.55013232421875,0.0008055428043007851,0.25228002667427063,0.11152350902557373
1667916001313207300,5.560207275390625,0.008520985953509808,0.4183773994445801,0.09926258027553558
1667916001323281400,5.570281494140625,0.02780076488852501,0.5132237672805786,0.07495901733636856
1667916001333356300,5.580356201171875,0.05795387551188469,0.5134378671646118,0.04926137998700142
1667916001343434500,5.5904345703125,0.08921985328197479,0.4393913149833679,0.01648511178791523
1667916001353509600,5.600509521484375,0.09485164284706116,0.3280743658542633,-0.024780303239822388
1667916001363584800,5.610584716796875,0.06524397432804108,0.147621750831604,-0.07658867537975311
1667916001373658600,5.62065869140625,0.036192357540130615,-0.06924104690551758,-0.12181127816438675
1667916001383733800,5.630733642578125,-0.003782345447689295,-0.3487510085105896,-0.15926745533943176
1667916001393808600,5.64080859375,-0.05157916247844696,-0.6557026505470276,-0.1847057044506073
1667916001403883800,5.6508837890625,-0.09288973361253738,-0.8940329551696777,-0.18895968794822693
1667916001413959000,5.660958984375,-0.12626712024211884,-0.9769965410232544,-0.20329122245311737
1667916001424032800,5.67103271484375,-0.1399126946926117,-0.8907496333122253,-0.224295511841774
1667916001434108000,5.68110791015625,-0.12588343024253845,-0.6523256301879883,-0.2436862587928772
1667916001444182500,5.6911826171875,-0.07488090544939041,-0.3476746082305908,-0.23770326375961304
1667916001454257700,5.701257568359375,0.022601976990699768,-0.006729817017912865,-0.17919309437274933
1667916001464332500,5.71133251953125,0.14919258654117584,0.2874397039413452,-0.05716880410909653
1667916001474406700,5.72140673828125,0.2698601484298706,0.4485641419887543,0.10097396373748779
1667916001484481500,5.7314814453125,0.34333691000938416,0.5120664834976196,0.2523585557937622
1667916001494556700,5.741556640625,0.346633642911911,0.5151483416557312,0.36360543966293335
1667916001504631800,5.7516318359375,0.2830607295036316,0.49118685722351074,0.41445857286453247
1667916001514706700,5.761706787109375,0.19405175745487213,0.44512027502059937,0.4065878689289093
1667916001524780800,5.77178076171875,0.13155819475650787,0.399684876203537,0.34528037905693054
1667916001534855700,5.781855712890625,0.06926979124546051,0.3109019994735718,0.24301524460315704
1667916001544930800,5.791930908203125,0.01430054847151041,0.1523776650428772,0.11662562191486359
1667916001555005700,5.802005615234375,-0.05372723937034607,-0.05580215901136398,-0.0032808082178235054
1667916001565079800,5.812079833984375,-0.13504017889499664,-0.29236143827438354,-0.10484208166599274
1667916001575154700,5.82215478515625,-0.2207995504140854,-0.5164430141448975,-0.1718679964542389
1667916001585229600,5.8322294921875,-0.2964842617511749,-0.6748889088630676,-0.20525597035884857
1667916001595304700,5.8423046875,-0.3618451654911041,-0.7768219709396362,-0.21144568920135498
1667916001605379600,5.852379638671875,-0.3933400809764862,-0.7974863648414612,-0.20905619859695435
1667916001615453700,5.86245361328125,-0.3845178186893463,-0.7103503942489624,-0.18952324986457825
1667916001625528600,5.872528564453125,-0.34376031160354614,-0.5522646903991699,-0.1748662143945694
1667916001635603700,5.882603759765625,-0.26911723613739014,-0.29849526286125183,-0.162307009100914
1667916001645678800,5.892678955078125,-0.17819075286388397,0.045907169580459595,-0.14653955399990082
1667916001655753700,5.902753662109375,-0.09326733648777008,0.4090198576450348,-0.10803396999835968
1667916001665827800,5.912827880859375,-0.034952159970998764,0.7348663210868835,-0.06418737024068832
1667916001675902700,5.92290283203125,-0.01064628828316927,0.9084529876708984,-0.01920471340417862
1667916001685977600,5.9329775390625,-0.00800857599824667,0.8893469572067261,0.007855015806853771
1667916001696052700,5.943052734375,-0.04787024110555649,0.6963231563568115,0.02063312940299511
1667916001706127600,5.953127685546875,-0.08238732069730759,0.42813339829444885,0.010134276002645493
1667916001716201700,5.96320166015625,-0.0996808186173439,0.1254504919052124,-0.020179687067866325
1667916001726276600,5.973276611328125,-0.06847620755434036,-0.17608045041561127,-0.06300181150436401
1667916001736351700,5.983351806640625,-0.05279951170086861,-0.43356287479400635,-0.08864512294530869
1667916001746426600,5.993426513671875,0.026329342275857925,-0.601021945476532,-0.09808303415775299
1667916001756500700,6.003500732421875,0.05644809454679489,-0.6424716114997864,-0.080925352871418
1667916001766575600,6.01357568359375,0.051412228494882584,-0.5401073098182678,-0.05093514546751976
1667916001776650800,6.023650634765625,0.02468368038535118,-0.32641980051994324,-0.018470680341124535
1667916001786725600,6.0337255859375,-0.021686716005206108,-0.1282816231250763,0.0021195230074226856
1667916001796800500,6.043800537109375,-0.06638601422309875,-0.018357258290052414,0.018843375146389008
1667916001806875000,6.053875,-0.09795236587524414,0.010332394391298294,0.035217199474573135
1667916001816949500,6.063949462890625,-0.12602367997169495,-0.003420168999582529,0.06014039367437363
1667916001827024600,6.074024658203125,-0.15179118514060974,0.01950789988040924,0.08478990197181702
1667916001837099800,6.084099853515625,-0.18179649114608765,0.0888691321015358,0.1006021574139595
1667916001847174700,6.094174560546875,-0.1843317598104477,0.1318615823984146,0.11754699051380157
1667916001857248800,6.104248779296875,-0.15836913883686066,0.13098940253257751,0.1447751373052597
1667916001867323600,6.11432373046875,-0.1076364815235138,0.12095500528812408,0.1840384155511856
1667916001877398800,6.124398681640625,-0.06194382905960083,0.13846874237060547,0.20081447064876556
1667916001887473700,6.1344736328125,-0.052487440407276154,0.18491020798683167,0.19081082940101624
1667916001897548800,6.144548828125,-0.08157289028167725,0.2300286889076233,0.14718611538410187
1667916001907622700,6.15462255859375,-0.14323732256889343,0.20190656185150146,0.0812760591506958
1667916001917697800,6.16469775390625,-0.1914285570383072,0.11654612421989441,0.018667541444301605
1667916001927772700,6.174772705078125,-0.23461484909057617,0.0016758451238274574,-0.03281167894601822
1667916001937847600,6.18484765625,-0.2612192928791046,-0.10248144716024399,-0.05713459849357605
1667916001947921700,6.194921630859375,-0.2577879726886749,-0.15492501854896545,-0.05870864540338516
1667916001957996500,6.20499658203125,-0.2193548083305359,-0.17975953221321106,-0.050785742700099945
1667916001968071700,6.21507177734375,-0.16197727620601654,-0.16295619308948517,-0.04123779013752937
1667916001978146800,6.225146728515625,-0.1152489185333252,-0.09540218859910965,-0.03178516402840614
1667916001988221700,6.2352216796875,-0.08026312291622162,0.0005924161523580551,-0.015328533947467804
1667916001998295800,6.2452958984375,-0.07700420916080475,0.10367406159639359,0.012549170292913914
1667916002008370700,6.25537060546875,-0.0994458720088005,0.17184291779994965,0.047888778150081635
1667916002018445800,6.26544580078125,-0.13024640083312988,0.2167547345161438,0.08057215809822083
1667916002028520700,6.275520751953125,-0.17383156716823578,0.1922772377729416,0.09002786874771118
1667916002038595600,6.285595703125,-0.21976390480995178,0.0942300334572792,0.07092101871967316
1667916002048669700,6.295669677734375,-0.25440627336502075,-0.05541752278804779,0.03698405995965004
1667916002058744600,6.30574462890625,-0.27107366919517517,-0.15986190736293793,0.00038796616718173027
1667916002068819700,6.31581982421875,-0.3062015771865845,-0.19971460103988647,-0.0572979710996151
1667916002078894600,6.32589453125,-0.34300780296325684,-0.15073373913764954,-0.13038362562656403
1667916002088968700,6.33596875,-0.3610679805278778,0.0003864029422402382,-0.19650062918663025
1667916002099043600,6.346043701171875,-0.35957634449005127,0.12864291667938232,-0.24655313789844513
1667916002109118700,6.35611865234375,-0.3195697069168091,0.1641518622636795,-0.25366973876953125
1667916002119193900,6.36619384765625,-0.26263266801834106,0.05645494908094406,-0.21465760469436646
1667916002129268700,6.376268798828125,-0.21294884383678436,-0.11690452694892883,-0.13959470391273499
1667916002139342800,6.3863427734375,-0.18437552452087402,-0.227177232503891,-0.0772642195224762
1667916002149417700,6.396417724609375,-0.18785899877548218,-0.32327938079833984,-0.046247389167547226
1667916002159492600,6.40649267578125,-0.18970349431037903,-0.3855733871459961,-0.03178748860955238
1667916002169567500,6.4165673828125,-0.18608230352401733,-0.4311448335647583,-0.023420991376042366
1667916002179641600,6.4266416015625,-0.15728768706321716,-0.431731253862381,-0.01233611535280943
1667916002189716500,6.436716552734375,-0.12459226697683334,-0.3343052268028259,0.007678007706999779
1667916002199791600,6.44679150390625,-0.09100900590419769,-0.15676583349704742,0.03568008169531822
1667916002209866800,6.45686669921875,-0.0657220259308815,0.050513386726379395,0.07087615877389908
1667916002219941600,6.466941650390625,-0.05530320480465889,0.2324693351984024,0.10573454201221466
1667916002230015700,6.477015625,-0.06922055780887604,0.3407905101776123,0.13048990070819855
1667916002240090600,6.487090576171875,-0.11165989190340042,0.3865939676761627,0.1334950178861618
1667916002250165800,6.497165771484375,-0.1935253143310547,0.40112069249153137,0.10816366225481033
1667916002260241000,6.507240966796875,-0.2858709692955017,0.39270323514938354,0.0637996643781662
1667916002270314800,6.517314697265625,-0.379563570022583,0.3340553343296051,0.001460033468902111
1667916002280390000,6.527389892578125,-0.4325183928012848,0.22082412242889404,-0.0625128224492073
1667916002290464500,6.537464599609375,-0.4643932282924652,0.03676513582468033,-0.12308322638273239
1667916002300539600,6.54753955078125,-0.4686875641345978,-0.2065519094467163,-0.16290625929832458
1667916002310614500,6.557614501953125,-0.45654720067977905,-0.3972131609916687,-0.17531029880046844
1667916002320688600,6.567688720703125,-0.4336802065372467,-0.47971096634864807,-0.16948090493679047
1667916002330763500,6.577763427734375,-0.41680148243904114,-0.4529610872268677,-0.16712868213653564
1667916002340838700,6.587838623046875,-0.3953731656074524,-0.37705379724502563,-0.16974656283855438
1667916002350910000,6.597909912109375,-0.37009337544441223,-0.2735796868801117,-0.1635962724685669
1667916002360985000,6.607985107421875,-0.3362160921096802,-0.17067484557628632,-0.14092691242694855
1667916002371059000,6.618058837890625,-0.30249783396720886,-0.12798365950584412,-0.11623620986938477
1667916002381134000,6.628134033203125,-0.2803163528442383,-0.1033044084906578,-0.07916127890348434
1667916002391209000,6.638208984375,-0.26303330063819885,-0.07111900299787521,-0.04733297973871231
1667916002401284000,6.6482841796875,-0.24929216504096985,0.015391916036605835,-0.0257419366389513
1667916002411358000,6.65835791015625,-0.23517772555351257,0.19816726446151733,-0.009037497453391552
1667916002421433000,6.66843310546875,-0.225528284907341,0.4092978835105896,-0.0078819515183568
1667916002431507700,6.6785078125,-0.22031033039093018,0.5787173509597778,-0.007578910794109106
1667916002441582800,6.688582763671875,-0.2299206256866455,0.6399045586585999,-0.005104567855596542
1667916002451658000,6.698657958984375,-0.2545938193798065,0.5837802886962891,-0.0021715376060456038
1667916002461731800,6.70873193359375,-0.3088301718235016,0.4082380533218384,-0.013920871540904045
1667916002471807000,6.718806884765625,-0.3846489191055298,0.16419735550880432,-0.03657357394695282
1667916002481881900,6.7288818359375,-0.4669927954673767,-0.008612501434981823,-0.0694284588098526
1667916002491957000,6.73895703125,-0.5433688163757324,-0.057534296065568924,-0.11849424988031387
1667916002502030800,6.74903076171875,-0.5902862548828125,-0.007332376670092344,-0.16188539564609528
1667916002512106000,6.75910595703125,-0.5901117324829102,0.07565822452306747,-0.18951468169689178
1667916002522181000,6.76918115234375,-0.5413998961448669,0.1612389087677002,-0.18633779883384705
1667916002532256000,6.779256103515625,-0.45796579122543335,0.19550931453704834,-0.15119010210037231
1667916002542331000,6.789330810546875,-0.3674721121788025,0.18096232414245605,-0.0873165875673294
1667916002552405000,6.799405029296875,-0.2956972122192383,0.14212781190872192,-0.013537760823965073
1667916002562479900,6.80947998046875,-0.26652467250823975,0.10341610014438629,0.05896040424704552
1667916002572554800,6.8195546875,-0.2829928696155548,0.03575770556926727,0.10378330200910568
1667916002582630000,6.8296298828125,-0.32532650232315063,-0.04397067427635193,0.09816962480545044
1667916002592703700,6.839703857421875,-0.3687121570110321,-0.06919880956411362,0.05681431293487549
1667916002602779000,6.84977880859375,-0.39839017391204834,-0.023503489792346954,0.004326605703681707
1667916002612854000,6.85985400390625,-0.39350759983062744,0.05118555575609207,-0.00796356238424778
1667916002622929000,6.869928955078125,-0.342134952545166,0.10163647681474686,0.02759336680173874
1667916002633004000,6.880004150390625,-0.25474679470062256,0.12658938765525818,0.10762139409780502
1667916002643078000,6.890077880859375,-0.15763384103775024,0.10588862746953964,0.20966067910194397
1667916002653153000,6.900153076171875,-0.08454971760511398,0.10638794302940369,0.3110540807247162
1667916002663228200,6.910228271484375,-0.05806590989232063,0.13434579968452454,0.38056230545043945
1667916002673302800,6.920302734375,-0.07556775957345963,0.14890168607234955,0.38969385623931885
1667916002683377200,6.930377197265625,-0.1171165406703949,0.14213858544826508,0.33506283164024353
1667916002693451800,6.94045166015625,-0.16579702496528625,0.10082285106182098,0.23254340887069702
1667916002703527000,6.95052685546875,-0.21777819097042084,0.039046306163072586,0.10635165125131607
1667916002713601800,6.960601806640625,-0.2738732397556305,-0.04336376488208771,-0.0025784685276448727
1667916002723677000,6.970677001953125,-0.3108443021774292,-0.17491832375526428,-0.06801579892635345
1667916002733750800,6.980750732421875,-0.31661224365234375,-0.30759742856025696,-0.07825563102960587
1667916002743826000,6.990825927734375,-0.28953081369400024,-0.394942969083786,-0.038776930421590805
1667916002753901000,7.000901123046875,-0.2327670305967331,-0.3562479317188263,0.028230516240000725
1667916002763976000,7.010975830078125,-0.17721988260746002,-0.15117281675338745,0.11409562081098557
1667916002774050000,7.021050048828125,-0.1087392047047615,0.18562990427017212,0.20302347838878632
1667916002784125000,7.031125,-0.009146838448941708,0.4846869111061096,0.28487175703048706
1667916002794200000,7.041199951171875,0.09410765022039413,0.6047680377960205,0.33387765288352966
1667916002804275000,7.05127490234375,0.1556682139635086,0.5514670014381409,0.3373141884803772
1667916002814349800,7.061349853515625,0.15931665897369385,0.4685816764831543,0.3015083372592926
1667916002824424000,7.071423828125,0.11269135773181915,0.43457522988319397,0.2376481145620346
1667916002834498800,7.081498779296875,0.054219234734773636,0.438171923160553,0.15895920991897583
1667916002844574000,7.091573974609375,0.01766308769583702,0.3830578029155731,0.07944546639919281
1667916002854648800,7.10164892578125,0.04044042527675629,0.240836039185524,0.024323778226971626
1667916002864723000,7.111722900390625,0.10323935747146606,-0.0812021940946579,0.004285090137273073
1667916002874797800,7.1217978515625,0.1884387582540512,-0.45404052734375,0.011393243446946144
1667916002884873000,7.131873046875,0.23447443544864655,-0.7513625025749207,0.03765067830681801
1667916002894948000,7.141947998046875,0.19677510857582092,-0.9343665838241577,0.07378726452589035
1667916002905023000,7.15202294921875,0.10024431347846985,-0.9519532918930054,0.0976656973361969
1667916002915097000,7.16209716796875,0.005057811737060547,-0.8057286143302917,0.09680874645709991
1667916002925172000,7.172171875,-0.06142720580101013,-0.5321527719497681,0.05611244589090347
1667916002935246800,7.182246826171875,-0.0840614065527916,-0.19202858209609985,0.003833536058664322
1667916002945322000,7.192322021484375,-0.06273188441991806,0.15857897698879242,-0.02248542010784149
1667916002955395800,7.202395751953125,-0.0098735261708498,0.43743154406547546,-0.011309409514069557
1667916002965471000,7.212470947265625,0.061638738960027695,0.5956273078918457,0.037619251757860184
1667916002975545900,7.2225458984375,0.1263616532087326,0.604031503200531,0.10352305322885513
1667916002985621000,7.23262109375,0.17690207064151764,0.47792842984199524,0.16322578489780426
1667916002995695900,7.24269580078125,0.2084840089082718,0.28761598467826843,0.20087404549121857
1667916003005770000,7.25277001953125,0.20600727200508118,0.08209611475467682,0.195592999458313
1667916003015844900,7.262844970703125,0.1749689280986786,-0.10061457753181458,0.14909766614437103
1667916003025920000,7.272919921875,0.1327706128358841,-0.18210117518901825,0.0727299228310585
1667916003035995000,7.282994873046875,0.08883801102638245,-0.22176209092140198,-0.0002523791044950485
1667916003046069000,7.293069091796875,0.0752074271440506,-0.2685288190841675,-0.06293626874685287
1667916003056144000,7.303143798828125,0.0811840072274208,-0.31731539964675903,-0.09419236332178116
1667916003066218800,7.31321875,0.07429707050323486,-0.3561227321624756,-0.11990305781364441
1667916003076294000,7.3232939453125,0.038873862475156784,-0.3660689890384674,-0.14945432543754578
1667916003086369000,7.333369140625,-0.013830629177391529,-0.32767632603645325,-0.18657080829143524
1667916003096443000,7.34344287109375,-0.0507943257689476,-0.22850807011127472,-0.22300779819488525
1667916003106518000,7.35351806640625,-0.05782746896147728,-0.11761217564344406,-0.2352740466594696
1667916003116593000,7.363593017578125,-0.023670535534620285,-0.011270908638834953,-0.1933777779340744
1667916003126668000,7.37366796875,0.045410796999931335,0.09002348780632019,-0.11357695609331131
1667916003136742000,7.383741943359375,0.1360720992088318,0.1252039223909378,-0.010389165952801704
1667916003146817000,7.393817138671875,0.22819297015666962,0.06719095259904861,0.10570015758275986
1667916003156892000,7.403891845703125,0.3048904240131378,-0.024162214249372482,0.21961870789527893
1667916003166967000,7.413967041015625,0.3360193371772766,-0.041746269911527634,0.29797372221946716
1667916003177041200,7.424041259765625,0.30578890442848206,0.010658467188477516,0.30166733264923096
1667916003187116000,7.434115966796875,0.23367157578468323,0.10786543786525726,0.2544737160205841
1667916003197191000,7.44419091796875,0.1527625024318695,0.23971940577030182,0.17887814342975616
1667916003207265800,7.454265869140625,0.12078486382961273,0.31966617703437805,0.1018960103392601
1667916003217341000,7.4643408203125,0.03026132471859455,0.3024826645851135,0.037480566650629044
1667916003227414800,7.474414794921875,-0.001412716694176197,0.21507158875465393,0.004066415596753359
1667916003237490000,7.484489990234375,-0.022559845820069313,0.11537903547286987,0.017882125452160835
1667916003247565000,7.49456494140625,-0.05329352617263794,0.00014139898121356964,0.07274643331766129
1667916003257640000,7.504639892578125,-0.06133085861802101,-0.13364946842193604,0.14621630311012268
1667916003267714000,7.514714111328125,-0.04825899749994278,-0.26228201389312744,0.21523693203926086
1667916003277789000,7.524788818359375,-0.023382380604743958,-0.3665860593318939,0.2593902349472046
1667916003287864000,7.534864013671875,0.0022239144891500473,-0.394267737865448,0.273515909910202
1667916003297939000,7.54493896484375,0.013432185165584087,-0.35329651832580566,0.2714468240737915
1667916003308013000,7.555012939453125,0.021227259188890457,-0.24017663300037384,0.26273640990257263
1667916003318088000,7.565087890625,0.026835668832063675,-0.10148850083351135,0.24166089296340942
1667916003328162800,7.575162841796875,0.014485261403024197,-0.009912505745887756,0.2135496437549591
1667916003338238000,7.585238037109375,-0.006630740128457546,0.022530557587742805,0.1916438490152359
1667916003348317200,7.595317138671875,-0.04184465482831001,-0.0334181934595108,0.16744424402713776
1667916003358391000,7.60539111328125,-0.08600728958845139,-0.14914608001708984,0.15674389898777008
1667916003368466200,7.615466064453125,-0.1283118724822998,-0.2459312081336975,0.16343483328819275
1667916003378541000,7.625541015625,-0.16758255660533905,-0.2966909408569336,0.18476217985153198
1667916003388616200,7.6356162109375,-0.18461427092552185,-0.2803995907306671,0.21628069877624512
1667916003398690300,7.645690185546875,-0.15263091027736664,-0.14788229763507843,0.274044007062912
1667916003408765200,7.65576513671875,-0.08414106070995331,0.08665431290864944,0.3423263728618622
1667916003418840000,7.665840087890625,-0.025891315191984177,0.3265523910522461,0.3971126675605774
1667916003428915000,7.6759150390625,-0.006720284465700388,0.4745037853717804,0.4077613055706024
1667916003438989000,7.685989013671875,-0.03903353959321976,0.5253947377204895,0.36721712350845337
1667916003449064000,7.69606396484375,-0.11737708002328873,0.4784373641014099,0.2694911062717438
1667916003459139000,7.70613916015625,-0.21694698929786682,0.31800323724746704,0.1307656168937683
1667916003469214200,7.716214111328125,-0.2947549819946289,0.0770457461476326,-0.01995677873492241
1667916003479289000,7.7262890625,-0.313545286655426,-0.19789256155490875,-0.15406599640846252
1667916003489363200,7.73636328125,-0.2817838788032532,-0.44579315185546875,-0.25721848011016846
1667916003499438000,7.74643798828125,-0.23658639192581177,-0.6537829637527466,-0.307248055934906
1667916003509513200,7.75651318359375,-0.2039024829864502,-0.7836834192276001,-0.2951439619064331
1667916003519588000,7.766588134765625,-0.20045515894889832,-0.8265085816383362,-0.23335234820842743
1667916003529662200,7.776662109375,-0.1638481467962265,-0.7694772481918335,-0.15479229390621185
1667916003539737000,7.786737060546875,-0.13961529731750488,-0.5918081402778625,-0.09226174652576447
1667916003549812000,7.79681201171875,-0.11586416512727737,-0.3190884292125702,-0.061387985944747925
1667916003559887000,7.80688720703125,-0.10650469362735748,0.023809514939785004,-0.062195517122745514
1667916003569962000,7.8169619140625,-0.11708515882492065,0.39307597279548645,-0.07838540524244308
1667916003580036000,7.8270361328125,-0.12825830280780792,0.6328595280647278,-0.09666309505701065
1667916003590111000,7.837111083984375,-0.11715638637542725,0.689249575138092,-0.09458902478218079
1667916003600186000,7.84718603515625,-0.08812012523412704,0.6102433204650879,-0.08684331178665161
1667916003610261200,7.85726123046875,-0.06658580154180527,0.4254162311553955,-0.08701029419898987
1667916003620335000,7.867335205078125,-0.050367362797260284,0.16191218793392181,-0.09896448254585266
1667916003630410200,7.87741015625,-0.04178079962730408,-0.1085299625992775,-0.10508070141077042
1667916003640485000,7.887485107421875,-0.04417423531413078,-0.30601346492767334,-0.10801464319229126
1667916003650560300,7.897560302734375,-0.055206913501024246,-0.40439167618751526,-0.11964599788188934
1667916003660634000,7.907634033203125,-0.06833396852016449,-0.4346732497215271,-0.1291704773902893
1667916003670709200,7.917709228515625,-0.07059312611818314,-0.41216686367988586,-0.14127613604068756
1667916003680784000,7.927783935546875,-0.06551116704940796,-0.34950244426727295,-0.1504361927509308
1667916003690859000,7.93785888671875,-0.0679817795753479,-0.28869661688804626,-0.16952332854270935
1667916003700934100,7.94793408203125,-0.07536811381578445,-0.26289352774620056,-0.191941499710083
1667916003711008000,7.958008056640625,-0.08014422655105591,-0.1780439019203186,-0.23818276822566986
1667916003721083100,7.968083251953125,-0.08125085383653641,0.037442896515131,-0.2843078374862671
1667916003731158000,7.978157958984375,-0.08665334433317184,0.2916932702064514,-0.30034565925598145
1667916003741233200,7.988233154296875,-0.08215778321027756,0.4397520422935486,-0.26807788014411926
1667916003751307000,7.99830712890625,-0.050414495170116425,0.46334099769592285,-0.18926721811294556
1667916003761382100,8.008382080078125,-0.00006252620369195938,0.42849063873291016,-0.09426971524953842
1667916003771457300,8.018457275390626,0.03851362690329552,0.36275315284729004,-0.004331300966441631
1667916003781532200,8.0285322265625,0.04966147243976593,0.28606265783309937,0.06294482201337814
1667916003791606300,8.038606201171875,0.0302819162607193,0.16969209909439087,0.09324387460947037
1667916003801681200,8.04868115234375,-0.0053260307759046555,0.016759401187300682,0.0969652533531189
1667916003811756000,8.058756103515625,-0.05588268116116524,-0.16798114776611328,0.0898471549153328
1667916003821831000,8.068830810546874,-0.11702974885702133,-0.34398457407951355,0.05364476889371872
1667916003831906000,8.078906005859375,-0.1784939020872116,-0.45637235045433044,-0.008369334042072296
1667916003841980200,8.088980224609376,-0.2208809107542038,-0.4477215111255646,-0.08965925127267838
1667916003852055000,8.099054931640625,-0.23495492339134216,-0.3635459244251251,-0.1757184863090515
1667916003862130200,8.109130126953126,-0.2430325448513031,-0.2669755220413208,-0.24939168989658356
1667916003872205000,8.119205078125,-0.14331047236919403,-0.11973655223846436,-0.29008719325065613
1667916003882279200,8.129279052734375,-0.08199716359376907,0.10809946805238724,-0.2903352975845337
1667916003892354000,8.13935400390625,-0.015446900390088558,0.35068950057029724,-0.25011274218559265
1667916003902429200,8.14942919921875,0.046366460621356964,0.5043811202049255,-0.18344776332378387
1667916003912504300,8.15950439453125,0.08778980374336243,0.5279423594474792,-0.10686883330345154
1667916003922578200,8.169578125,0.10519781708717346,0.4246913194656372,-0.029223041608929634
1667916003932653300,8.1796533203125,0.098581463098526,0.223981112241745,0.048283468931913376
1667916003942728000,8.18972802734375,0.06685886532068253,0.017855800688266754,0.12467420101165771
1667916003952803000,8.199802978515624,0.047169312834739685,-0.11273390054702759,0.2014845609664917
1667916003962877000,8.209876953125,0.06354423612356186,-0.09351988881826401,0.26299723982810974
1667916003972952000,8.2199521484375,0.09809981286525726,0.02706298604607582,0.284538209438324
1667916003983027200,8.230027099609375,0.1368957757949829,0.1968809962272644,0.2671721875667572
1667916003993102000,8.24010205078125,0.17549483478069305,0.36356666684150696,0.22509318590164185
1667916004003177200,8.25017724609375,0.19310057163238525,0.4436245560646057,0.16202488541603088
1667916004013251000,8.2602509765625,0.18252888321876526,0.3969755470752716,0.09946271032094955
1667916004023326200,8.270326171875,0.15011119842529297,0.24540658295154572,0.048244353383779526
1667916004033401000,8.280401123046875,0.08603634685277939,0.06395582854747772,0.008074294775724411
1667916004043476200,8.290476318359374,-0.003977697342634201,-0.15250110626220703,-0.023079896345734596
1667916004053550000,8.300550048828125,-0.08243095874786377,-0.3735882043838501,-0.03537251427769661
1667916004063625200,8.310625244140626,-0.11727587878704071,-0.5425949096679688,-0.015215730294585228
1667916004073700000,8.3207001953125,-0.06919384002685547,-0.5985319018363953,0.023357760161161423
1667916004083775000,8.33077490234375,-0.05406687408685684,-0.49365130066871643,0.06698333472013474
1667916004093849000,8.34084912109375,0.024261485785245895,-0.2473754733800888,0.10809455066919327
1667916004103924000,8.350924072265625,0.11180059611797333,0.06380254775285721,0.1324332356452942
1667916004113999000,8.3609990234375,0.17612099647521973,0.3966633081436157,0.13901549577713013
1667916004124074200,8.37107421875,0.20808938145637512,0.7151763439178467,0.12099196761846542
1667916004134149000,8.381149169921875,0.1979219615459442,0.9100220203399658,0.09554678946733475
1667916004144223200,8.39122314453125,0.1665656864643097,0.9974780678749084,0.06939981877803802
1667916004154298000,8.401298095703124,0.11928605288267136,0.9753232598304749,0.05106794834136963
1667916004164373200,8.411373291015625,0.06357286870479584,0.801156759262085,0.025460176169872284
1667916004174448000,8.4214482421875,-0.003632260486483574,0.48057684302330017,-0.005153394769877195
1667916004184522200,8.431522216796875,-0.07023990154266357,0.04622281342744827,-0.050949256867170334
1667916004194597000,8.44159716796875,-0.13990500569343567,-0.40685731172561646,-0.10423111915588379
1667916004204672000,8.451672119140625,-0.2014283984899521,-0.7521834969520569,-0.1572050005197525
1667916004214747100,8.4617470703125,-0.24132521450519562,-0.9165111780166626,-0.20639252662658691
1667916004224821000,8.471821044921874,-0.24498416483402252,-0.8692384362220764,-0.2376585304737091
1667916004234896100,8.481896240234375,-0.2051137089729309,-0.6998412013053894,-0.2415400892496109
1667916004244971000,8.491970947265624,-0.11036450415849686,-0.44874852895736694,-0.23589691519737244
1667916004255046100,8.502046142578125,0.026019439101219177,-0.10261082649230957,-0.20530173182487488
1667916004265120000,8.5121201171875,0.18296179175376892,0.2593982517719269,-0.1509411633014679
1667916004275195100,8.522195068359375,0.3268830180168152,0.5313122868537903,-0.062234994024038315
1667916004285270300,8.532270263671874,0.44000300765037537,0.6973927617073059,0.042780552059412
1667916004295345200,8.54234521484375,0.5025947690010071,0.7480490207672119,0.14915093779563904
1667916004305420300,8.552420166015626,0.5171910524368286,0.6571841835975647,0.2343597412109375
1667916004315494100,8.562494140625,0.4862651228904724,0.47454726696014404,0.29634907841682434
1667916004325569300,8.5725693359375,0.43847140669822693,0.238760307431221,0.31512951850891113
1667916004335644000,8.582643798828125,0.3914623558521271,-0.03848409280180931,0.29845544695854187
1667916004345718800,8.59271875,0.3517066538333893,-0.2825278043746948,0.2368832379579544
1667916004355793000,8.60279296875,0.29459649324417114,-0.429923415184021,0.1303083300590515
1667916004365867800,8.61286767578125,0.1920183002948761,-0.470503032207489,-0.01904985122382641
1667916004375943000,8.62294287109375,0.02521413005888462,-0.4365288317203522,-0.182181254029274
1667916004386018000,8.63301806640625,-0.07218267768621445,-0.3941092789173126,-0.32552969455718994
1667916004396092000,8.643091796875,-0.16330087184906006,-0.3655223846435547,-0.41467875242233276
1667916004406167000,8.6531669921875,-0.19704781472682953,-0.33173930644989014,-0.44790148735046387
1667916004416242000,8.663241943359376,-0.17412573099136353,-0.25785788893699646,-0.4441989064216614
1667916004426317000,8.673317138671875,-0.103996142745018,-0.10185712575912476,-0.4117752015590668
1667916004436391000,8.683390869140625,0.015140632167458534,0.11870534718036652,-0.3518517017364502
1667916004446466000,8.693466064453125,0.16763874888420105,0.31541672348976135,-0.25997626781463623
1667916004456541000,8.703541015625,0.32990458607673645,0.4402931332588196,-0.1416006237268448
1667916004466615800,8.71361572265625,0.47365498542785645,0.4721522629261017,-0.002301206113770604
1667916004476691000,8.72369091796875,0.5797516107559204,0.41346338391304016,0.1278378963470459
1667916004486764800,8.733764892578124,0.6276922821998596,0.2823944389820099,0.22763636708259583
1667916004496840000,8.74383984375,0.6176193952560425,0.10308193415403366,0.2774539887905121
1667916004506914800,8.753914794921876,0.5586001873016357,-0.0923442542552948,0.2789981961250305
1667916004516990000,8.763989990234375,0.47616046667099,-0.24218301475048065,0.2323680818080902
1667916004527063800,8.774063720703126,0.389333039522171,-0.2993059456348419,0.1613481044769287
1667916004537139000,8.784138916015625,0.3054932653903961,-0.27460113167762756,0.07653014361858368
1667916004547214000,8.794214111328126,0.22436854243278503,-0.19439077377319336,-0.014951543882489204
1667916004557289000,8.8042890625,0.16490814089775085,-0.08275772631168365,-0.09460616111755371
1667916004567363000,8.814363037109375,0.11450497061014175,0.045310989022254944,-0.14571444690227509
1667916004577438000,8.82443798828125,0.06389425694942474,0.12434028834104538,-0.14984340965747833
1667916004587513000,8.83451318359375,0.02718258649110794,0.10686548799276352,-0.1165485605597496
1667916004597587700,8.844587646484374,-0.005588939413428307,-0.010605478659272194,-0.061321526765823364
1667916004607662000,8.854662109375,-0.02314651384949684,-0.17269515991210938,0.007662744726985693
1667916004617737000,8.864737060546876,-0.026602230966091156,-0.3070918619632721,0.07150323688983917
1667916004627811800,8.874811767578125,-0.010251838713884354,-0.38838714361190796,0.1258358210325241
1667916004637887000,8.884886962890626,0.030910514295101166,-0.4071568250656128,0.16972817480564117
1667916004647961900,8.8949619140625,0.08816586434841156,-0.3539204001426697,0.21251818537712097
1667916004658036000,8.905035888671875,0.1575169861316681,-0.2779998183250427,0.2388017177581787
1667916004668110800,8.91511083984375,0.21447980403900146,-0.20710016787052155,0.2500517666339874
1667916004678186000,8.92518603515625,0.2370961755514145,-0.14138348400592804,0.22019454836845398
1667916004688261000,8.93526123046875,0.20790863037109375,-0.11451440304517746,0.16692368686199188
1667916004698335000,8.9453349609375,0.1327475607395172,-0.1316308081150055,0.10150232911109924
1667916004708410000,8.95541015625,0.035502657294273376,-0.1647392213344574,0.04611056298017502
1667916004718485000,8.965485107421875,-0.051572591066360474,-0.1731092780828476,0.005648892372846603
1667916004728559900,8.975559814453124,-0.12976489961147308,-0.19854898750782013,-0.02055632323026657
1667916004738634000,8.985634033203125,-0.16025570034980774,-0.22957907617092133,-0.015187657438218594
1667916004748708900,8.995708984375,-0.13399294018745422,-0.24108484387397766,0.01905341073870659
1667916004758784000,9.005783935546875,-0.07799597084522247,-0.21905703842639923,0.08358313888311386
1667916004768859000,9.01585888671875,0.005602044053375721,-0.138427734375,0.15713931620121002
1667916004778933000,9.02593310546875,0.0669008195400238,-0.013687679544091225,0.22093987464904785
1667916004789008000,9.0360078125,0.07251574844121933,0.10509287565946579,0.24708342552185059
1667916004799083000,9.0460830078125,0.014336061663925648,0.17110678553581238,0.221614807844162
1667916004809158000,9.056157958984375,-0.0823606550693512,0.17622298002243042,0.161054790019989
1667916004819233000,9.06623291015625,-0.18932971358299255,0.15228116512298584,0.07324371486902237
1667916004829307000,9.076306884765625,-0.273282527923584,0.07368834316730499,-0.02358923852443695
1667916004839382000,9.086382080078126,-0.3028249740600586,-0.04047711193561554,-0.09992768615484238
1667916004849457200,9.09645703125,-0.29594919085502625,-0.15196871757507324,-0.12433293461799622
1667916004859531800,9.10653173828125,-0.23960016667842865,-0.2385917603969574,-0.110508993268013
1667916004869606100,9.116606201171875,-0.14482539892196655,-0.24734990298748016,-0.07288843393325806
1667916004879680800,9.1266806640625,-0.025138672441244125,-0.17940494418144226,-0.019255567342042923
1667916004889756000,9.136755859375,0.0806603729724884,-0.0825105831027031,0.04679704084992409
1667916004899831000,9.1468310546875,0.13926270604133606,-0.024690693244338036,0.12029069662094116
1667916004909905000,9.15690478515625,0.15328003466129303,0.05295027792453766,0.17694006860256195
1667916004919980000,9.16697998046875,0.11029688268899918,0.20116718113422394,0.21299181878566742
1667916004930055000,9.177054931640624,0.012938817963004112,0.3602697253227234,0.23834359645843506
1667916004940130000,9.187130126953125,-0.1139642745256424,0.45890921354293823,0.24287229776382446
1667916004950204000,9.197203857421876,-0.231692835688591,0.4238923192024231,0.2213553637266159
1667916004960279000,9.207279052734375,-0.36266815662384033,0.30477339029312134,0.1672404557466507
1667916004970354000,9.21735400390625,-0.3839541971683502,0.1846720427274704,0.09676247090101242
1667916004980429000,9.227428955078125,-0.4191265404224396,0.08991198241710663,0.02291221357882023
1667916004990504000,9.23750390625,-0.42816630005836487,0.0037242043763399124,-0.04276352375745773
1667916005000578000,9.247578125,-0.4003911316394806,-0.09082120656967163,-0.11028610914945602
1667916005010653000,9.25765283203125,-0.3416976034641266,-0.169993594288826,-0.15363720059394836
1667916005020727800,9.267727783203124,-0.2639423608779907,-0.21163052320480347,-0.1835692673921585
1667916005030803000,9.277802978515625,-0.19281655550003052,-0.22823090851306915,-0.20156152546405792
1667916005040876800,9.287876708984374,-0.13326695561408997,-0.23379585146903992,-0.21553859114646912
1667916005050952000,9.297951904296875,-0.08020909130573273,-0.23309674859046936,-0.2212425172328949
1667916005061027000,9.308027099609374,-0.03617105633020401,-0.18771196901798248,-0.23018167912960052
1667916005071102000,9.31810205078125,-0.005152272526174784,-0.08766652643680573,-0.24303317070007324
1667916005081176000,9.328176025390626,0.00845141988247633,0.043818265199661255,-0.2444494366645813
1667916005091251000,9.3382509765625,0.008729842491447926,0.17378965020179749,-0.21647971868515015
1667916005101326000,9.348326171875,-0.002125468570739031,0.2767852544784546,-0.16821151971817017
1667916005111401000,9.35840087890625,-0.018953219056129456,0.35605576634407043,-0.10099197179079056
1667916005121475000,9.36847509765625,-0.023630794137716293,0.3686532974243164,-0.03465423360466957
1667916005131550000,9.378550048828124,-0.007310234010219574,0.31502866744995117,0.012789268046617508
1667916005141624800,9.388624755859375,0.012101280502974987,0.18862198293209076,0.032270293682813644
1667916005151700000,9.398699951171874,0.022192448377609253,0.03292204439640045,0.0265688244253397
1667916005161774800,9.40877490234375,0.013286040164530277,-0.06659495830535889,-0.00529829366132617
1667916005171849000,9.418848876953126,-0.008938458748161793,-0.10721681267023087,-0.040917929261922836
1667916005181923800,9.428923828125,-0.025106508284807205,-0.10973269492387772,-0.0704963281750679
1667916005191999000,9.4389990234375,-0.03934980556368828,-0.09454120695590973,-0.08362100273370743
1667916005202074000,9.44907421875,-0.039391618221998215,-0.10302577167749405,-0.08607963472604752
1667916005212148000,9.45914794921875,-0.029523923993110657,-0.11841245740652084,-0.08234310150146484
1667916005222223000,9.46922314453125,-0.023689739406108856,-0.14789605140686035,-0.07646816968917847
1667916005232298000,9.479298095703125,-0.02066284790635109,-0.159272238612175,-0.07028131932020187
1667916005242372900,9.489372802734374,-0.01110023446381092,-0.11241845041513443,-0.07040781527757645
1667916005252447000,9.499447021484375,-0.0022565568797290325,-0.03770159184932709,-0.06771495193243027
1667916005262521900,9.50952197265625,0.01658131368458271,0.031922757625579834,-0.053420163691043854
1667916005272596700,9.5195966796875,0.05160484090447426,0.0926356241106987,-0.034194037318229675
1667916005282671900,9.529671875,0.023905836045742035,0.10122165083885193,-0.00425291620194912
1667916005292745700,9.539745849609375,0.07228772342205048,0.05249333754181862,0.03397279977798462
1667916005302820900,9.54982080078125,0.09420047700405121,-0.030482769012451172,0.08830660581588745
1667916005312896000,9.55989599609375,0.1356639415025711,-0.10373969376087189,0.1480856090784073
1667916005322971000,9.569970947265626,0.19577255845069885,-0.1322493702173233,0.18235675990581512
1667916005333045000,9.580044921875,0.26596304774284363,-0.09667403250932693,0.1982138305902481
1667916005343120000,9.590119873046875,0.33092817664146423,-0.020965689793229103,0.21119913458824158
1667916005353195300,9.6001953125,0.3902115523815155,0.016650427132844925,0.21998003125190735
1667916005363270100,9.610270263671875,0.43166738748550415,0.035792697221040726,0.23631319403648376
1667916005373345000,9.620344970703124,0.4367644190788269,0.026020891964435577,0.25274592638015747
1667916005383419100,9.630419189453125,0.40874236822128296,-0.029217064380645752,0.2613905668258667
1667916005393494000,9.640493896484376,0.35185930132865906,-0.1479235142469406,0.2652362287044525
1667916005403569200,9.650569091796875,0.2908872961997986,-0.2796964645385742,0.2557620108127594
1667916005413644000,9.66064404296875,0.2522594928741455,-0.38352733850479126,0.24006003141403198
1667916005423718100,9.67071826171875,0.24170805513858795,-0.34304168820381165,0.21430592238903046
1667916005433793000,9.68079296875,0.24115240573883057,-0.15304379165172577,0.18756632506847382
1667916005443868200,9.6908681640625,0.26452139019966125,0.1143900454044342,0.17940399050712585
1667916005453943000,9.700943115234375,0.32139644026756287,0.3748147487640381,0.1965717077255249
1667916005464017200,9.71101708984375,0.4018484055995941,0.5668824315071106,0.23348018527030945
1667916005474092000,9.721092041015625,0.4698709547519684,0.6530198454856873,0.2807602882385254
1667916005484167200,9.731167236328124,0.4873964190483093,0.6135203242301941,0.3198254108428955
1667916005494242300,9.7412421875,0.44544240832328796,0.45594698190689087,0.33110111951828003
1667916005504316200,9.751316162109376,0.3442113995552063,0.1794525533914566,0.3157852590084076
1667916005514391300,9.761391357421875,0.21012786030769348,-0.1999528855085373,0.2646275758743286
1667916005524466000,9.7714658203125,0.07045385986566544,-0.591228723526001,0.18982471525669098
1667916005534541000,9.781541015625,-0.05972863733768463,-0.8644306659698486,0.08970263600349426
1667916005544615000,9.791614990234375,-0.14461930096149445,-0.9322645664215088,-0.007485431153327227
1667916005554690000,9.80168994140625,-0.17838382720947266,-0.7823986411094666,-0.07027753442525864
1667916005564765200,9.81176513671875,-0.16270500421524048,-0.5173243880271912,-0.07445922493934631
1667916005574840000,9.821840087890624,-0.06161317974328995,-0.24947652220726013,-0.018907910212874413
1667916005584915200,9.831915283203125,0.12368903309106827,-0.03592109680175781,0.08759616315364838
1667916005594989000,9.841989013671874,0.3313830494880676,0.146694615483284,0.20450472831726074
1667916005605064200,9.852064208984375,0.47749337553977966,0.30545711517333984,0.3014240860939026
1667916005615139000,9.86213916015625,0.5172114372253418,0.45947858691215515,0.3602656126022339
1667916005625214200,9.872214111328125,0.4230622947216034,0.5665342211723328,0.3770352900028229
1667916005635288000,9.8822880859375,0.29716411232948303,0.566088855266571,0.35404253005981445
1667916005645363200,9.89236328125,0.15153315663337708,0.4469933807849884,0.3131427466869354
1667916005655438000,9.90243798828125,0.04710983484983444,0.28248563408851624,0.2608579397201538
1667916005665513000,9.912512939453125,-0.020273998379707336,0.10972132533788681,0.19576019048690796
1667916005675587000,9.922587158203125,-0.057586632668972015,-0.04381949082016945,0.1186429113149643
1667916005685662000,9.932661865234374,-0.08331489562988281,-0.19981041550636292,0.04172069951891899
1667916005695737000,9.942737060546875,-0.11344480514526367,-0.3436409831047058,-0.04586270451545715
1667916005705812200,9.952812255859374,-0.15606176853179932,-0.4257592558860779,-0.1343611478805542
1667916005715887000,9.96288720703125,-0.2004011869430542,-0.4501084089279175,-0.21848702430725098
1667916005725961200,9.972961181640626,-0.22699737548828125,-0.4072735905647278,-0.28913378715515137
1667916005736036000,9.9830361328125,-0.22831709682941437,-0.3061116337776184,-0.33031782507896423
1667916005746111200,9.993111328125,-0.2049422562122345,-0.16486209630966187,-0.3368300497531891
1667916005756186000,10.00318603515625,-0.12997563183307648,-0.011435901746153831,-0.2998083829879761
1667916005766260200,10.01326025390625,-0.03817301243543625,0.12349847704172134,-0.2144836187362671
1667916005776335000,10.023335205078125,0.051553912460803986,0.17374855279922485,-0.09656760841608047
1667916005786410000,10.033409912109375,0.13649623095989227,0.15616236627101898,0.041880812495946884
1667916005796485000,10.043485107421875,0.19551463425159454,0.07577753067016602,0.16503141820430756
1667916005806559000,10.05355908203125,0.22415266931056976,-0.028310785070061684,0.2424745410680771
1667916005816634000,10.063634033203124,0.22510264813899994,-0.10509373247623444,0.26419392228126526
1667916005826709000,10.073708984375,0.21150295436382294,-0.10459039360284805,0.22858932614326477
1667916005836784000,10.0837841796875,0.18623429536819458,-0.011829067021608353,0.14028668403625488
1667916005846858000,10.09385791015625,0.14867334067821503,0.13824830949306488,0.030889887362718582
1667916005856933000,10.10393310546875,0.09843906760215759,0.2804342806339264,-0.07574881613254547
1667916005867008300,10.11400830078125,0.037387967109680176,0.3492357134819031,-0.15219299495220184
1667916005877083100,10.124083251953126,-0.025092780590057373,0.30394116044044495,-0.18083415925502777
1667916005887158300,10.134158203125,-0.08312838524580002,0.14280714094638824,-0.16258937120437622
1667916005897232100,10.144232177734375,-0.11056087166070938,-0.08812438696622849,-0.12061364203691483
1667916005907307300,10.154307373046874,-0.11711464822292328,-0.29966381192207336,-0.07445600628852844
1667916005917382000,10.1643818359375,-0.09896344691514969,-0.37939584255218506,-0.04108887165784836
1667916005927457000,10.17445703125,-0.08632701635360718,-0.3426612615585327,-0.03988565504550934
1667916005937531000,10.18453076171875,-0.06492479145526886,-0.2267029732465744,-0.05512985587120056
1667916005947606000,10.19460595703125,-0.04276889190077782,-0.10932282358407974,-0.06783979386091232
1667916005957681200,10.20468115234375,-0.02339812181890011,-0.026048969477415085,-0.07070907950401306
1667916005967756000,10.214756103515626,-0.010340909473598003,0.006257305853068829,-0.06059999018907547
1667916005977830100,10.224830078125,-0.008541411720216274,-0.017866140231490135,-0.04755156487226486
1667916005987905000,10.234905029296876,-0.0067938449792563915,-0.11945082247257233,-0.039496034383773804
1667916005997980200,10.244980224609375,-0.011988756246864796,-0.23972590267658234,-0.04149086773395538
1667916006008055300,10.25505517578125,-0.014009563252329826,-0.3125463128089905,-0.05482397973537445
1667916006018129200,10.265129150390624,-0.017225980758666992,-0.3425526022911072,-0.08045012503862381
1667916006028204300,10.275204345703125,-0.020776238292455673,-0.3193194568157196,-0.09793351590633392
1667916006038279200,10.285279052734374,-0.02439958229660988,-0.26253780722618103,-0.09733817726373672
1667916006048354000,10.29535400390625,-0.031914226710796356,-0.19629861414432526,-0.07529892027378082
1667916006058428200,10.30542822265625,-0.03470303490757942,-0.1395798921585083,-0.04823754355311394
1667916006068503000,10.3155029296875,-0.0233830027282238,-0.08210276812314987,-0.014517396688461304
1667916006078578000,10.325577880859376,0.0019281534478068352,0.028638964518904686,0.006363179534673691
1667916006088653000,10.335653076171875,0.032701779156923294,0.2207024097442627,0.015715669840574265
1667916006098728200,10.345728271484376,0.06332032382488251,0.41094478964805603,0.01727716624736786
1667916006108802000,10.355802001953125,0.0990879014134407,0.5109826922416687,0.0338156633079052
1667916006118877200,10.365877197265625,0.14372052252292633,0.5285781621932983,0.06520669162273407
1667916006128952000,10.3759521484375,0.17525315284729004,0.48265329003334045,0.11558864265680313
1667916006139027200,10.386027099609375,0.19628238677978516,0.4096145033836365,0.16871170699596405
1667916006149101000,10.39610107421875,0.20836541056632996,0.32684293389320374,0.19510416686534882
1667916006159176200,10.40617626953125,0.2003597617149353,0.21969786286354065,0.19229842722415924
1667916006169251300,10.416251220703124,0.16666969656944275,0.060161203145980835,0.17066903412342072
1667916006179326000,10.426325927734375,0.12366048246622086,-0.12112810462713242,0.14170579612255096
1667916006189400300,10.436400390625,0.07523302733898163,-0.30009305477142334,0.10247450321912766
1667916006199475000,10.446474853515625,0.020129945129156113,-0.39401015639305115,0.04503266513347626
1667916006209550000,10.456550048828126,-0.028936132788658142,-0.40131014585494995,-0.03514339402318001
1667916006219625000,10.466625,-0.07560110837221146,-0.34050917625427246,-0.1256922036409378
1667916006229700000,10.4767001953125,-0.10137304663658142,-0.23184822499752045,-0.1904972940683365
1667916006239774000,10.48677392578125,-0.10923725366592407,-0.09269171953201294,-0.21875596046447754
1667916006249849000,10.49684912109375,-0.10276895761489868,0.0031205546110868454,-0.21290552616119385
1667916006259924200,10.50692431640625,-0.10581555962562561,0.010005466639995575,-0.17707008123397827
1667916006269999000,10.5169990234375,-0.12138226628303528,-0.03667335584759712,-0.14826799929141998
1667916006280073200,10.5270732421875,-0.1350291222333908,-0.05955968424677849,-0.1243772804737091
1667916006290148000,10.537148193359375,-0.13818444311618805,-0.05583658814430237,-0.1106734499335289
1667916006300223200,10.54722314453125,-0.11341828852891922,-0.00003441330045461655,-0.10389287024736404
1667916006310298000,10.557298095703125,-0.06064269691705704,0.12023048102855682,-0.09347005188465118
1667916006320372200,10.567372314453126,0.012491879053413868,0.26698818802833557,-0.06748497486114502
1667916006330447000,10.577447021484375,0.10003983974456787,0.41581523418426514,-0.029718952253460884
1667916006340522000,10.58752197265625,0.17130017280578613,0.5404361486434937,0.018538862466812134
1667916006350593800,10.59759375,0.21323084831237793,0.5911328792572021,0.0746774971485138
1667916006360667600,10.607667724609374,0.2158900946378708,0.5407214760780334,0.12422152608633041
1667916006370742800,10.61774267578125,0.18711569905281067,0.4514225125312805,0.15192079544067383
1667916006380818000,10.62781787109375,0.14397472143173218,0.37966933846473694,0.15858261287212372
1667916006390892800,10.637892822265625,0.09222231060266495,0.2883700430393219,0.14208006858825684
1667916006400968000,10.647968017578124,0.04319217801094055,0.2254665046930313,0.10422135144472122
1667916006411041800,10.658041748046875,-0.0033913040533661842,0.17672985792160034,0.06560791283845901
1667916006421117000,10.668116943359376,-0.05528193339705467,0.1305903196334839,0.03039666824042797
1667916006431191800,10.67819189453125,-0.09420482814311981,0.08493761718273163,0.008177114650607109
1667916006441266700,10.6882666015625,-0.10808560252189636,0.07035081833600998,-0.01839897781610489
1667916006451340800,10.6983408203125,-0.12080086767673492,0.10158330202102661,-0.06709141284227371
1667916006461415700,10.708415771484376,-0.13322129845619202,0.15827453136444092,-0.13566437363624573
1667916006471490800,10.71849072265625,-0.1348617970943451,0.23873741924762726,-0.22319716215133667
1667916006481565700,10.728565673828125,-0.11294590681791306,0.30441126227378845,-0.31391873955726624
1667916006491639800,10.738639892578124,-0.07424352318048477,0.36492466926574707,-0.3917035460472107
1667916006501714700,10.748714599609375,-0.02832760661840439,0.39796075224876404,-0.4377851188182831
1667916006511789800,10.758789794921874,0.01830674149096012,0.3711288571357727,-0.42927685379981995
1667916006521865000,10.768864990234375,0.07003279030323029,0.31145361065864563,-0.3712484538555145
1667916006531939800,10.77893994140625,0.11454673111438751,0.2531871199607849,-0.29478296637535095
1667916006542014000,10.789013916015625,0.1546728014945984,0.12773579359054565,-0.21450486779212952
1667916006552088800,10.7990888671875,0.21393586695194244,0.005451166070997715,-0.15027794241905212
1667916006562163700,10.809163818359375,0.27365225553512573,-0.06462908536195755,-0.12542271614074707
1667916006572238800,10.81923876953125,0.3092576563358307,-0.07025740295648575,-0.13503539562225342
1667916006582312700,10.829312744140625,0.3368496596813202,-0.08967035263776779,-0.16148251295089722
1667916006592387800,10.839387939453125,0.37338823080062866,-0.11801037937402725,-0.17997390031814575
1667916006602462700,10.849462646484374,0.40367627143859863,-0.12388722598552704,-0.17109167575836182
1667916006612537900,10.859537841796875,0.4193013310432434,-0.14035913348197937,-0.1376815289258957
1667916006622611700,10.86961181640625,0.42058560252189636,-0.14386677742004395,-0.09032317996025085
1667916006632686800,10.879686767578125,0.41204431653022766,-0.08393153548240662,-0.03678165748715401
1667916006642761700,10.88976171875,0.3883737623691559,0.04252739995718002,0.013001464307308197
1667916006652836900,10.8998369140625,0.3499259650707245,0.22015224397182465,0.05469005927443504
1667916006662912000,10.909912109375,0.3117150366306305,0.3815288245677948,0.08456210792064667
1667916006672985900,10.91998583984375,0.28139787912368774,0.4822772741317749,0.09528932720422745
1667916006683061000,10.93006103515625,0.25639060139656067,0.52204430103302,0.08431597054004669
1667916006693135600,10.940135498046875,0.231116384267807,0.489237904548645,0.06943182647228241
1667916006703210800,10.950210693359375,0.20161420106887817,0.43735867738723755,0.05252205580472946
1667916006713284600,10.96028466796875,0.16873693466186523,0.35050660371780396,0.03030729480087757
1667916006723359700,10.97035986328125,0.13606394827365875,0.2255997359752655,0.015171230770647526
1667916006733435000,10.980434814453124,0.12709654867649078,0.09462679177522659,0.02707476168870926
1667916006743509800,10.990509765625,0.1333894431591034,-0.013735964894294739,0.07470101118087769
1667916006753583900,11.000583984375,0.13012175261974335,-0.0796811580657959,0.13679340481758118
1667916006763658800,11.01065869140625,0.10992392152547836,-0.07112274318933487,0.18952122330665588
1667916006773734000,11.02073388671875,0.08653737604618073,0.03190057724714279,0.21668493747711182
1667916006783808800,11.030808837890625,0.06125160679221153,0.16228288412094116,0.22552567720413208
1667916006793883000,11.0408828125,0.03974099084734917,0.26980215311050415,0.21433694660663605
1667916006803957800,11.050957763671875,0.006588862277567387,0.37929967045783997,0.18533433973789215
1667916006814033000,11.061032958984375,-0.032016053795814514,0.5140140652656555,0.14824609458446503
1667916006824107800,11.071107666015624,-0.09724858403205872,0.6620837450027466,0.10546348243951797
1667916006834182700,11.0811826171875,-0.15462931990623474,0.7578966021537781,0.06274371594190598
1667916006844256800,11.0912568359375,-0.19113904237747192,0.7586147785186768,0.025758443400263786
1667916006854331600,11.10133154296875,-0.20615288615226746,0.6621159315109253,0.005342651158571243
1667916006864406800,11.11140673828125,-0.20155812799930573,0.4474070072174072,-0.0016912822611629963
1667916006874482000,11.12148193359375,-0.19278301298618317,0.148685023188591,-0.011550837196409702
1667916006884555800,11.1315556640625,-0.1753389835357666,-0.14900322258472443,-0.02056916430592537
1667916006894631000,11.141630859375,-0.16667012870311737,-0.3751753866672516,-0.030581584200263023
1667916006904705800,11.151705810546876,-0.16511847078800201,-0.4982730448246002,-0.03447148576378822
1667916006914781000,11.161781005859375,-0.16751424968242645,-0.47976383566856384,-0.03324643149971962
1667916006924854800,11.171854736328125,-0.16428029537200928,-0.37820184230804443,-0.024908430874347687
1667916006934930000,11.181929931640624,-0.14632685482501984,-0.22738328576087952,-0.016462482511997223
1667916006945004800,11.1920048828125,-0.11733805388212204,-0.06898913532495499,-0.004806922283023596
1667916006955079700,11.20207958984375,-0.08876393735408783,0.06354440748691559,0.005531203001737595
1667916006965154800,11.21215478515625,-0.058506663888692856,0.10892000794410706,0.02006245218217373
1667916006975228700,11.222228759765626,-0.04138519987463951,0.06084968149662018,0.01862887293100357
1667916006985303800,11.2323037109375,-0.04547102749347687,0.003307226113975048,0.011981353163719177
1667916006995378700,11.242378662109376,-0.07045067101716995,-0.02318803034722805,-0.011979373171925545
1667916007005453800,11.252453857421875,-0.10317669063806534,-0.018978018313646317,-0.0517086423933506
1667916007015527700,11.262527587890625,-0.12721651792526245,0.005165932700037956,-0.0793546512722969
1667916007025602800,11.272602783203125,-0.14974461495876312,0.030383802950382233,-0.10721597075462341
1667916007035678000,11.282677978515625,-0.15627042949199677,0.015782222151756287,-0.1114964708685875
1667916007045752800,11.2927529296875,-0.1560550332069397,-0.024291926994919777,-0.08794581145048141
1667916007055827000,11.302826904296875,-0.13612233102321625,-0.060991086065769196,-0.05882867053151131
1667916007065901800,11.31290185546875,-0.09808307141065598,-0.060324426740407944,-0.03409402444958687
1667916007075977000,11.32297705078125,-0.04385152459144592,-0.008070274256169796,-0.028998862951993942
1667916007086051600,11.333051513671874,0.0065685659646987915,0.05376436933875084,-0.03702834993600845
1667916007096126000,11.3431259765625,0.04715913534164429,0.05293745920062065,-0.04241619259119034
1667916007106200600,11.35320068359375,0.06736702471971512,-0.025014644488692284,-0.02984003722667694
1667916007116275700,11.363275634765625,0.05618813633918762,-0.163957878947258,-0.0030800625681877136
1667916007126350800,11.373350830078126,0.022642869502305984,-0.3198346793651581,0.03504050895571709
1667916007136425700,11.38342578125,0.0005918964743614197,-0.4332121014595032,0.05889470502734184
1667916007146499800,11.393499755859375,-0.004116155207157135,-0.45138615369796753,0.06580573320388794
1667916007156574700,11.40357470703125,0.006579100154340267,-0.3744485080242157,0.04793006554245949
1667916007166649900,11.41364990234375,0.047604650259017944,-0.24484704434871674,0.008439548313617706
1667916007176725000,11.42372509765625,0.08555043488740921,-0.12577097117900848,-0.0333465151488781
1667916007186798800,11.433798828125,0.11187498271465302,-0.06864483654499054,-0.07639437913894653
1667916007196874000,11.4438740234375,0.11311575025320053,-0.0953691303730011,-0.1140378937125206
1667916007206948900,11.453948974609375,0.07426274567842484,-0.1643805205821991,-0.1398128718137741
1667916007217023700,11.464023681640626,0.012562097050249577,-0.26910558342933655,-0.12990617752075195
1667916007227098600,11.4740986328125,-0.025839947164058685,-0.337781697511673,-0.08796028047800064
1667916007237172700,11.4841728515625,-0.011983253993093967,-0.30715882778167725,-0.023598868399858475
1667916007247247600,11.49424755859375,0.061213407665491104,-0.14036354422569275,0.04454883188009262
1667916007257322800,11.50432275390625,0.16644687950611115,0.05908351391553879,0.10300149023532867
1667916007267398000,11.51439794921875,0.2635195851325989,0.2046395242214203,0.17338725924491882
1667916007277471700,11.5244716796875,0.312896728515625,0.2706981599330902,0.24619035422801971
1667916007287547000,11.534546875,0.2883683145046234,0.2700817584991455,0.2980550527572632
1667916007297621800,11.544621826171875,0.20881277322769165,0.23627637326717377,0.30605146288871765
1667916007307697000,11.55469677734375,0.10048408061265945,0.19556781649589539,0.2639634907245636
1667916007317770800,11.564770751953125,-0.00484393909573555,0.12805961072444916,0.17655642330646515
1667916007327846000,11.574845947265626,-0.08434326201677322,0.04899638518691063,0.07880479097366333
1667916007337921000,11.584921142578125,-0.13696973025798798,-0.051831960678100586,-0.02942846715450287
1667916007347995100,11.5949951171875,-0.17444267868995667,-0.15381237864494324,-0.12199606746435165
1667916007358070000,11.605070068359375,-0.20420430600643158,-0.24048255383968353,-0.18678705394268036
1667916007368144100,11.61514404296875,-0.2378416210412979,-0.3126624822616577,-0.2141723334789276
1667916007378219000,11.625218994140624,-0.25267383456230164,-0.3831805884838104,-0.21222876012325287
1667916007388294000,11.6352939453125,-0.2574184536933899,-0.47354310750961304,-0.18357667326927185
1667916007398369000,11.645369140625,-0.24793069064617157,-0.5339430570602417,-0.14541488885879517
1667916007408443000,11.65544287109375,-0.2454773485660553,-0.5247176289558411,-0.10484885424375534
1667916007418518000,11.66551806640625,-0.2445439100265503,-0.4205084443092346,-0.07770911604166031
1667916007428593200,11.67559326171875,-0.22071096301078796,-0.20687027275562286,-0.06812606006860733
1667916007438668000,11.68566796875,-0.1709761619567871,0.05304012447595596,-0.06643602252006531
1667916007448742100,11.6957421875,-0.08690904825925827,0.2605171203613281,-0.06885381042957306
1667916007458817000,11.705817138671875,0.01525940466672182,0.3540785014629364,-0.06894329190254211
1667916007468892200,11.71589208984375,0.11214763671159744,0.37027883529663086,-0.06853106617927551
1667916007478967000,11.725967041015625,0.17934291064739227,0.35525888204574585,-0.07101020216941833
1667916007489042000,11.7360419921875,0.20779256522655487,0.2738483250141144,-0.07292493432760239
1667916007499116300,11.7461162109375,0.2233763188123703,0.17240481078624725,-0.06348668783903122
1667916007509191000,11.75619091796875,0.22629927098751068,0.05649387091398239,-0.032376814633607864
1667916007519266000,11.76626611328125,0.22413571178913116,-0.008713892661035061,0.012137390673160553
1667916007529341000,11.7763408203125,0.2215534895658493,0.007761829532682896,0.04696357622742653
1667916007539415000,11.7864150390625,0.2140263319015503,0.08707928657531738,0.06718442589044571
1667916007549490000,11.796489990234376,0.22420072555541992,0.1865411102771759,0.07095645368099213
1667916007559565000,11.80656494140625,0.2310575544834137,0.24111753702163696,0.05841057002544403
1667916007569640200,11.81664013671875,0.22913536429405212,0.18223369121551514,0.04866786673665047
1667916007579714000,11.826714111328124,0.21036966145038605,0.0050714220851659775,0.04694480076432228
1667916007589789200,11.8367890625,0.16434961557388306,-0.22699648141860962,0.04087449237704277
1667916007599864000,11.846864013671874,0.09619718790054321,-0.4304713010787964,0.020250707864761353
1667916007609939200,11.856939208984375,0.02150191366672516,-0.5249590277671814,-0.015472672879695892
1667916007620014000,11.86701416015625,-0.04720471054315567,-0.5366241931915283,-0.05554978549480438
1667916007630088200,11.877088134765625,-0.08879032731056213,-0.5049715042114258,-0.08821070939302444
1667916007640163000,11.8871630859375,-0.09172540158033371,-0.4412822723388672,-0.0986417755484581
1667916007650238000,11.897238037109375,-0.07274933904409409,-0.3138689696788788,-0.08525244146585464
1667916007660313000,11.90731298828125,-0.0421442911028862,-0.15887218713760376,-0.05577870458364487
1667916007670387000,11.917386962890625,-0.013223220594227314,-0.05820965766906738,-0.007320290897041559
1667916007680462000,11.927462158203125,0.02011236548423767,-0.029201440513134003,0.06552115827798843
1667916007690537000,11.937536865234375,0.05254043638706207,-0.0030814725905656815,0.1493144929409027
1667916007700612000,11.947612060546875,0.06455874443054199,0.025173068046569824,0.21428923308849335
1667916007710686000,11.95768603515625,0.06821922957897186,0.041637010872364044,0.2473742514848709
1667916007720761000,11.967760986328125,0.0690235048532486,0.09714154899120331,0.2448197454214096
1667916007730836200,11.977836181640624,0.06524918228387833,0.1800452619791031,0.20886211097240448
1667916007740911000,11.9879111328125,0.04258115962147713,0.28734269738197327,0.13980527222156525
1667916007750986000,11.997986083984374,-0.0009081428870558739,0.37462615966796875,0.03486542031168938
1667916007761060000,12.00806005859375,-0.07476559281349182,0.3524039387702942,-0.08250728249549866
1667916007771135000,12.018135009765626,-0.16798044741153717,0.16280539333820343,-0.17104597389698029
1667916007781209900,12.0282099609375,-0.23924611508846283,-0.1787431538105011,-0.21838019788265228
1667916007791285000,12.038284912109376,-0.27941951155662537,-0.527698278427124,-0.2099655121564865
1667916007801359000,12.048359130859374,-0.29078057408332825,-0.7774218320846558,-0.17475266754627228
1667916007811434000,12.05843408203125,-0.25780346989631653,-0.844538152217865,-0.13042406737804413
1667916007821509000,12.068509033203124,-0.1910470724105835,-0.7463058829307556,-0.08552316576242447
1667916007831584000,12.078583984375,-0.09448809921741486,-0.49376174807548523,-0.03663386031985283
1667916007841658000,12.088658203125,0.01739608868956566,-0.15366408228874207,0.023761041462421417
1667916007851733000,12.09873291015625,0.1095304787158966,0.147505983710289,0.09920153766870499
1667916007861808000,12.10880810546875,0.16302087903022766,0.33058205246925354,0.18700596690177917
1667916007871883300,12.11888330078125,0.14274004101753235,0.38915878534317017,0.27549007534980774
1667916007881958000,12.1289580078125,0.06163933128118515,0.3684018552303314,0.3507981598377228
1667916007892032300,12.1390322265625,-0.03232385590672493,0.3175668716430664,0.3895638585090637
1667916007902107000,12.14910693359375,-0.09249532222747803,0.32480478286743164,0.38868528604507446
1667916007912182000,12.15918212890625,-0.10522975027561188,0.41170892119407654,0.3617599308490753
1667916007922257000,12.1692568359375,-0.09785199165344238,0.496431827545166,0.3232303857803345
1667916007932331000,12.1793310546875,-0.08891419321298599,0.5255072116851807,0.2813950777053833
1667916007942406100,12.18940625,-0.09781527519226074,0.4939950406551361,0.25843435525894165
1667916007952481000,12.19948095703125,-0.14020434021949768,0.4019932150840759,0.25026649236679077
1667916007962556200,12.20955615234375,-0.17637751996517181,0.27297157049179077,0.251027375459671
1667916007972631000,12.219631103515624,-0.19050715863704681,0.12008842825889587,0.24547572433948517
1667916007982705200,12.229705078125,-0.200691357254982,-0.09171250462532043,0.22789140045642853
1667916007992780000,12.239780029296876,-0.19575196504592896,-0.33677393198013306,0.20042937994003296
1667916008002855200,12.249855224609375,-0.17898710072040558,-0.5084186792373657,0.15746299922466278
1667916008012930000,12.259929931640626,-0.172648623585701,-0.5671170353889465,0.09904775768518448
1667916008023004200,12.270004150390625,-0.1843430995941162,-0.5282663106918335,0.029385322704911232
1667916008033079000,12.2800791015625,-0.20076033473014832,-0.38348841667175293,-0.041593074798583984
1667916008043154000,12.29015380859375,-0.21543967723846436,-0.1292676031589508,-0.09412845224142075
1667916008053229000,12.30022900390625,-0.2180628925561905,0.1529293805360794,-0.11205392330884933
1667916008063303000,12.310302978515624,-0.20374946296215057,0.4092645049095154,-0.09303522855043411
1667916008073378000,12.3203779296875,-0.18500865995883942,0.5988820791244507,-0.038121797144412994
1667916008083453200,12.330453125,-0.13235555589199066,0.6804413795471191,0.044525146484375
1667916008093528000,12.340528076171875,-0.09279471635818481,0.6765009760856628,0.1155874952673912
1667916008103603200,12.350603271484376,-0.06588692963123322,0.6001343131065369,0.1402214616537094
