time,seconds_elapsed,z,y,x
1667915995792200700,0.03920068359375,-17.902908325195312,26.495590209960938,-24.250581741333008
1667915995802275600,0.049275634765625,-18.325851440429688,26.443029403686523,-24.164304733276367
1667915995812350700,0.059350830078125,-17.853836059570312,26.275224685668945,-23.955106735229492
1667915995822425600,0.069425537109375,-18.105575561523438,26.479942321777344,-23.942472457885742
1667915995832500700,0.079500732421875,-17.906509399414062,26.50324249267578,-23.517911911010742
1667915995842576000,0.089575927734375,-17.730606079101562,26.4512996673584,-23.570356369018555
1667915995852650800,0.099650634765625,-17.833877563476562,26.68328285217285,-23.779272079467773
1667915995862724900,0.109724853515625,-17.587509155273438,26.818437576293945,-23.646120071411133
1667915995872799700,0.1197998046875,-17.614395141601562,26.8247013092041,-23.631723403930664
1667915995882874600,0.12987451171875,-17.555068969726562,27.01020050048828,-23.130456924438477
1667915995892949500,0.139949462890625,-17.719467163085938,26.91168975830078,-23.40410804748535
1667915995903024600,0.150024658203125,-17.505874633789062,26.89203643798828,-23.209962844848633
1667915995913099800,0.160099853515625,-17.804550170898438,27.08209991455078,-22.8083438873291
1667915995923174700,0.170174560546875,-17.973129272460938,26.712032318115234,-22.78721809387207
1667915995933248800,0.180248779296875,-18.012832641601562,26.93763542175293,-22.365415573120117
1667915995943323600,0.19032373046875,-18.173019409179688,27.019811630249023,-22.333513259887695
1667915995953398800,0.200398681640625,-18.827163696289062,27.045318603515625,-22.100187301635742
1667915995963474000,0.210473876953125,-19.085647583007812,26.869964599609375,-21.949277877807617
1667915995973548500,0.220548583984375,-18.971694946289062,26.766481399536133,-21.802114486694336
1667915995983623700,0.230623779296875,-19.301528930664062,26.776304244995117,-21.992555618286133
1667915995993698600,0.240698486328125,-19.371505737304688,26.77020263671875,-21.956403732299805
1667915996003772700,0.250772705078125,-19.357955932617188,26.695886611938477,-21.817392349243164
1667915996013847600,0.26084765625,-19.417556762695312,26.70612907409668,-21.90412712097168
1667915996023922700,0.270922607421875,-20.054580688476562,26.594579696655273,-21.859102249145508
1667915996033997800,0.280997802734375,-19.784835815429688,26.76144790649414,-21.97303581237793
1667915996044072700,0.29107275390625,-20.049819946289062,26.819551467895508,-21.80768394470215
1667915996054147800,0.30114794921875,-19.985488891601562,26.623531341552734,-21.75105094909668
1667915996064222500,0.311222412109375,-20.126358032226562,26.624134063720703,-21.720590591430664
1667915996074296800,0.321296875,-20.093948364257812,26.733978271484375,-21.798059463500977
1667915996084371700,0.331371826171875,-19.974288940429688,26.83098793029785,-22.18718910217285
1667915996094446600,0.341446533203125,-19.985366821289062,26.695512771606445,-22.415231704711914
1667915996104521700,0.351521728515625,-19.401565551757812,26.805402755737305,-22.727460861206055
1667915996114596600,0.3615966796875,-19.684310913085938,26.49567413330078,-22.777036666870117
1667915996124671700,0.371671630859375,-19.274703979492188,26.495559692382812,-23.320833206176758
1667915996134745600,0.38174560546875,-18.915969848632812,26.306135177612305,-23.549612045288086
1667915996144820700,0.39182080078125,-18.767196655273438,26.101526260375977,-23.923681259155273
1667915996154896000,0.401895751953125,-18.620437622070312,26.318321228027344,-23.76105308532715
1667915996164970800,0.411970703125,-18.566726684570312,26.09283447265625,-24.06495475769043
1667915996175045600,0.422045654296875,-18.475021362304688,25.806594848632812,-24.18343162536621
1667915996185120500,0.43212060546875,-18.555313110351562,25.84787940979004,-24.23329734802246
1667915996195195600,0.442195556640625,-18.935531616210938,25.547409057617188,-24.376306533813477
1667915996205269500,0.45226953125,-18.977188110351562,25.443653106689453,-24.45433235168457
1667915996215344600,0.4623447265625,-18.921920776367188,25.06035804748535,-24.48435401916504
1667915996225419800,0.472419677734375,-18.561203002929688,25.351011276245117,-24.7912540435791
1667915996235494700,0.48249462890625,-18.773788452148438,25.14251708984375,-25.03214454650879
1667915996245569800,0.49256982421875,-19.006484985351562,24.821958541870117,-25.453584671020508
1667915996255644700,0.502644775390625,-19.121627807617188,24.668109893798828,-25.58143424987793
1667915996265719600,0.512719482421875,-19.434799194335938,24.335758209228516,-25.589387893676758
1667915996275793700,0.522793701171875,-19.590164184570312,24.408456802368164,-25.7126522064209
1667915996285868500,0.53286865234375,-19.596115112304688,24.11191749572754,-25.729341506958008
1667915996295943700,0.542943603515625,-19.731674194335938,24.008569717407227,-25.925973892211914
1667915996306018600,0.5530185546875,-19.822463989257812,24.078632354736328,-26.006380081176758
1667915996316093700,0.56309375,-19.674850463867188,23.529882431030273,-25.776426315307617
1667915996326168800,0.5731689453125,-20.032211303710938,23.339536666870117,-26.03666877746582
1667915996336242700,0.58324267578125,-20.189743041992188,23.082117080688477,-26.13505744934082
1667915996346317600,0.593317626953125,-20.504592895507812,22.83957862854004,-26.377134323120117
1667915996356392700,0.603392822265625,-20.279556274414062,22.569761276245117,-26.459501266479492
1667915996366467800,0.6134677734375,-20.273818969726562,22.486812591552734,-26.469724655151367
1667915996376542500,0.62354248046875,-20.415237426757812,22.155832290649414,-26.52259635925293
1667915996386617600,0.63361767578125,-20.767776489257812,22.08329963684082,-26.376108169555664
1667915996396692500,0.6436923828125,-20.888046264648438,21.902868270874023,-26.44715690612793
1667915996406766600,0.6537666015625,-21.020339965820312,21.338157653808594,-26.56235694885254
1667915996416841500,0.663841552734375,-21.340682983398438,21.169116973876953,-26.514936447143555
1667915996426916600,0.67391650390625,-21.603317260742188,21.006805419921875,-26.6231632232666
1667915996436991700,0.68399169921875,-22.006698608398438,20.593406677246094,-26.44435691833496
1667915996447066600,0.694066650390625,-22.386825561523438,20.496685028076172,-26.686986923217773
1667915996457141800,0.704141845703125,-22.491622924804688,20.054622650146484,-26.6837215423584
1667915996467215600,0.714215576171875,-22.380508422851562,19.666976928710938,-26.73545265197754
1667915996477290800,0.724290771484375,-22.549850463867188,19.62592315673828,-26.695573806762695
1667915996487365600,0.73436572265625,-22.789962768554688,19.42291259765625,-26.729612350463867
1667915996497440500,0.7444404296875,-23.049057006835938,19.400863647460938,-26.55413246154785
1667915996507515600,0.754515625,-23.431259155273438,19.34478759765625,-26.134889602661133
1667915996517590500,0.764590576171875,-23.722274780273438,19.308338165283203,-25.838403701782227
1667915996527665700,0.774665771484375,-24.123672485351562,19.145709991455078,-25.69207191467285
1667915996537739500,0.784739501953125,-24.629135131835938,19.26837158203125,-25.740327835083008
1667915996547814700,0.794814697265625,-25.070632934570312,19.413738250732422,-25.309934616088867
1667915996557889800,0.804889892578125,-25.513809204101562,19.237064361572266,-25.074525833129883
1667915996567964700,0.814964599609375,-25.121047973632812,18.918163299560547,-24.741601943969727
1667915996578039600,0.82503955078125,-25.816360473632812,18.6514892578125,-24.640966415405273
1667915996588114400,0.835114501953125,-26.279556274414062,18.57400894165039,-24.692251205444336
1667915996598188500,0.8451884765625,-26.378005981445312,18.471942901611328,-24.373262405395508
1667915996608263400,0.855263427734375,-26.632553100585938,18.091529846191406,-24.494443893432617
1667915996618338600,0.865338623046875,-27.025924682617188,17.75885009765625,-24.31410789489746
1667915996628413700,0.87541357421875,-27.034194946289062,17.46990203857422,-24.279375076293945
1667915996638488600,0.885488525390625,-26.673324584960938,17.128246307373047,-24.60959815979004
1667915996648563700,0.895563720703125,-27.116592407226562,16.54852294921875,-24.75545310974121
1667915996658638600,0.905638671875,-27.421463012695312,16.41689682006836,-24.560964584350586
1667915996668712700,0.915712646484375,-27.511276245117188,16.10357666015625,-24.682100296020508
1667915996678787600,0.92578759765625,-27.671524047851562,15.833011627197266,-24.50023078918457
1667915996688862500,0.935862548828125,-27.985671997070312,15.754207611083984,-24.3449649810791
1667915996698937600,0.9459375,-28.067550659179688,15.728755950927734,-23.89449119567871
1667915996709012500,0.956012451171875,-28.343734741210938,16.352977752685547,-23.694238662719727
1667915996719087600,0.966087646484375,-28.492843627929688,16.390159606933594,-23.414297103881836
1667915996729162800,0.976162841796875,-28.530075073242188,16.561687469482422,-23.142148971557617
1667915996739236600,0.986236572265625,-28.530227661132812,16.226253509521484,-22.861101150512695
1667915996749311700,0.996311767578125,-28.594711303710938,16.501873016357422,-22.751279830932617
1667915996759386600,1.00638671875,-29.064529418945312,16.45433807373047,-22.989187240600586
1667915996769461500,1.01646142578125,-28.973068237304688,16.402984619140625,-23.02577781677246
1667915996779536600,1.02653662109375,-28.882766723632812,16.363391876220703,-22.951223373413086
1667915996789611500,1.036611572265625,-28.875595092773438,16.254066467285156,-23.150636672973633
1667915996799685600,1.046685546875,-29.054275512695312,16.295574188232422,-23.32053565979004
1667915996809760500,1.056760498046875,-28.872299194335938,16.233081817626953,-23.313894271850586
1667915996819835600,1.066835693359375,-28.719619750976562,16.195636749267578,-23.49577522277832
1667915996829910500,1.07691064453125,-28.902267456054688,15.852718353271484,-23.35979652404785
1667915996839985700,1.086985595703125,-29.129135131835938,16.033206939697266,-23.364595413208008
1667915996850060800,1.097060791015625,-28.915084838867188,16.01101303100586,-23.38385581970215
1667915996860134700,1.107134765625,-29.160140991210938,15.677116394042969,-23.61452293395996
1667915996870209800,1.117209716796875,-28.891403198242188,15.720436096191406,-24.21302604675293
1667915996880284700,1.12728466796875,-28.493240356445312,15.931907653808594,-24.300161361694336
1667915996890359600,1.137359619140625,-28.733779907226562,15.654876708984375,-24.818124771118164
1667915996900434400,1.147434326171875,-28.350479125976562,15.7972412109375,-25.075063705444336
1667915996910509600,1.157509521484375,-28.387924194335938,15.360305786132812,-25.381845474243164
1667915996920584700,1.167584716796875,-28.097946166992188,15.40463638305664,-25.598360061645508
1667915996930658600,1.177658447265625,-27.584640502929688,15.431083679199219,-25.595853805541992
1667915996940733700,1.187733642578125,-27.400497436523438,15.473236083984375,-25.873048782348633
1667915996950808600,1.19780859375,-27.137283325195312,15.397106170654297,-26.1689510345459
1667915996960883700,1.2078837890625,-27.081283569335938,15.547813415527344,-26.533926010131836
1667915996970958600,1.21795849609375,-26.391555786132812,15.396240234375,-26.74774742126465
1667915996981033500,1.228033447265625,-26.338211059570312,15.45062255859375,-26.747846603393555
1667915996991107600,1.238107666015625,-26.337173461914062,15.440120697021484,-27.081029891967773
1667915997001182500,1.248182373046875,-26.324783325195312,15.415538787841797,-27.049428939819336
1667915997011257600,1.258257568359375,-25.791549682617188,15.636024475097656,-27.161710739135742
1667915997021332500,1.26833251953125,-25.598037719726562,15.378227233886719,-27.31699562072754
1667915997031407600,1.27840771484375,-25.751235961914062,15.578987121582031,-27.38996696472168
1667915997041482800,1.288482666015625,-25.908401489257812,15.300559997558594,-27.532785415649414
1667915997051556600,1.298556640625,-26.223648071289062,15.132526397705078,-27.539857864379883
1667915997061631700,1.3086318359375,-26.022476196289062,15.284507751464844,-27.77183723449707
1667915997071706600,1.31870654296875,-25.676620483398438,14.93276596069336,-27.61579704284668
1667915997081781500,1.328781494140625,-25.840744018554688,14.962600708007812,-27.867753982543945
1667915997091856600,1.338856689453125,-25.483932495117188,14.943168640136719,-27.943601608276367
1667915997101931500,1.348931640625,-25.315200805664062,15.09842300415039,-27.986440658569336
1667915997112006700,1.359006591796875,-25.459457397460938,15.013790130615234,-28.239221572875977
1667915997122080500,1.36908056640625,-25.437149047851562,15.18802261352539,-28.461259841918945
1667915997132155600,1.37915576171875,-25.341629028320312,15.083248138427734,-28.676298141479492
1667915997142230500,1.38923046875,-24.882797241210938,15.019020080566406,-28.829729080200195
1667915997152305700,1.3993056640625,-25.058425903320312,14.98501205444336,-28.893644332885742
1667915997162380800,1.409380859375,-24.595840454101562,15.126388549804688,-28.95970344543457
1667915997172455400,1.419455322265625,-24.389450073242188,14.877449035644531,-28.86319923400879
1667915997182529800,1.42952978515625,-24.408401489257812,14.844619750976562,-29.21831703186035
1667915997192604400,1.4396044921875,-24.461227416992188,14.745620727539062,-29.42388343811035
1667915997202679600,1.449679443359375,-24.464767456054688,14.600635528564453,-29.372587203979492
1667915997212754400,1.45975439453125,-24.519729614257812,14.406501770019531,-29.450960159301758
1667915997222829600,1.46982958984375,-24.856704711914062,14.249568939208984,-29.64565086364746
1667915997232904700,1.47990478515625,-24.499832153320312,13.870567321777344,-29.992799758911133
1667915997242978600,1.489978515625,-24.323532104492188,13.777774810791016,-30.006315231323242
1667915997253053700,1.5000537109375,-24.578018188476562,13.373695373535156,-30.242551803588867
1667915997263128600,1.510128662109375,-24.429122924804688,13.189483642578125,-30.086328506469727
1667915997273203700,1.52020361328125,-24.539321899414062,12.777755737304688,-30.079919815063477
1667915997283278600,1.530278564453125,-24.037460327148438,12.735172271728516,-30.323049545288086
1667915997293353500,1.540353515625,-24.048629760742188,12.432022094726562,-30.7080020904541
1667915997303427600,1.550427490234375,-24.047317504882812,12.245269775390625,-30.848127365112305
1667915997313502500,1.56050244140625,-24.015823364257812,11.929153442382812,-31.321874618530273
1667915997323577600,1.57057763671875,-23.919937133789062,11.534015655517578,-31.239023208618164
1667915997333652500,1.580652587890625,-23.982742309570312,11.023635864257812,-31.070009231567383
1667915997343727400,1.590727294921875,-24.099777221679688,11.145076751708984,-31.24012565612793
1667915997353802200,1.60080224609375,-24.179550170898438,10.92324447631836,-30.985754013061523
1667915997363877400,1.61087744140625,-24.273788452148438,10.534854888916016,-31.11307716369629
1667915997373951200,1.620951171875,-24.237777709960938,10.491451263427734,-31.013456344604492
1667915997384026400,1.6310263671875,-24.046829223632812,10.47092056274414,-30.9857120513916
1667915997394101500,1.6411015625,-24.083877563476562,10.278697967529297,-31.180910110473633
1667915997404176100,1.651176025390625,-24.145278930664062,10.282020568847656,-31.17848014831543
1667915997414251300,1.661251220703125,-24.510238647460938,10.087764739990234,-31.0889949798584
1667915997424326400,1.671326416015625,-24.995773315429688,9.77376937866211,-30.829465866088867
1667915997434400300,1.681400146484375,-25.125076293945312,9.39065170288086,-30.864282608032227
1667915997444475400,1.691475341796875,-24.941696166992188,9.059581756591797,-30.851900100708008
1667915997454550300,1.70155029296875,-25.385635375976562,9.028060913085938,-30.81279182434082
1667915997464625400,1.71162548828125,-25.494827270507812,8.797351837158203,-30.582990646362305
1667915997474700300,1.7217001953125,-25.624008178710938,8.550289154052734,-30.499391555786133
1667915997484775400,1.731775390625,-25.682205200195312,8.210617065429688,-30.599000930786133
1667915997494849300,1.741849365234375,-25.997299194335938,8.115222930908203,-30.47576332092285
1667915997504924400,1.75192431640625,-25.908981323242188,7.884479522705078,-30.466447830200195
1667915997514999300,1.761999267578125,-26.141525268554688,7.671070098876953,-30.39293098449707
1667915997525074200,1.77207421875,-26.516128540039062,7.2882232666015625,-30.354978561401367
1667915997535149300,1.7821494140625,-26.607681274414062,6.840122222900391,-30.310434341430664
1667915997545224400,1.792224365234375,-26.602828979492188,6.548454284667969,-30.11210060119629
1667915997555299300,1.80229931640625,-27.017288208007812,6.323982238769531,-29.881311416625977
1667915997565373400,1.81237353515625,-27.104904174804688,6.130481719970703,-29.536462783813477
1667915997575448300,1.8224482421875,-27.429641723632812,5.899879455566406,-29.497621536254883
1667915997585523500,1.8325234375,-27.745315551757812,5.738548278808594,-29.248991012573242
1667915997595598300,1.842598388671875,-27.873123168945312,5.5023956298828125,-29.17713737487793
1667915997605673200,1.852673095703125,-28.036087036132812,5.582714080810547,-29.38630485534668
1667915997615748400,1.862748291015625,-28.284439086914062,5.205841064453125,-29.359174728393555
1667915997625822200,1.872822265625,-27.949478149414062,5.333984375,-29.244203567504883
1667915997635897300,1.8828974609375,-27.441787719726562,5.0100860595703125,-29.173654556274414
1667915997645972200,1.89297216796875,-27.718856811523438,4.7633209228515625,-29.503938674926758
1667915997656047400,1.90304736328125,-27.850265502929688,4.593631744384766,-29.75163459777832
1667915997666122200,1.913122314453125,-28.262557983398438,4.3730926513671875,-29.836881637573242
1667915997676197400,1.923197265625,-28.059707641601562,4.096317291259766,-29.77690315246582
1667915997686271500,1.933271484375,-27.916305541992188,3.9400100708007812,-29.62532615661621
1667915997696346400,1.943346435546875,-28.593612670898438,3.407360076904297,-29.452131271362305
1667915997706421200,1.953421142578125,-28.619430541992188,3.2826576232910156,-29.372209548950195
1667915997716496100,1.96349609375,-28.745010375976562,2.9363441467285156,-29.30467414855957
1667915997726571300,1.9735712890625,-29.204299926757812,2.72930908203125,-29.058195114135742
1667915997736646400,1.983646484375,-29.063247680664062,2.2962608337402344,-29.034074783325195
1667915997746720300,1.99372021484375,-29.306655883789062,2.0145111083984375,-28.793771743774414
1667915997756795400,2.00379541015625,-29.419906616210938,1.7844581604003906,-28.832544326782227
1667915997766870300,2.013870361328125,-29.507675170898438,1.7086639404296875,-28.497793197631836
1667915997776945400,2.0239453125,-29.913833618164062,1.3382415771484375,-28.285913467407227
1667915997787020300,2.034020263671875,-30.209182739257812,1.0514678955078125,-27.97597312927246
1667915997797095400,2.044095458984375,-30.352249145507812,0.7704238891601562,-27.836530685424805
1667915997807169300,2.054169189453125,-30.641921997070312,0.5795516967773438,-27.207021713256836
1667915997817244400,2.064244384765625,-30.563644409179688,0.1117095947265625,-27.414140701293945
1667915997827319300,2.0743193359375,-30.673721313476562,-0.07888412475585938,-27.347719192504883
1667915997837394200,2.084394287109375,-31.189895629882812,-0.2943572998046875,-26.82670021057129
1667915997847469300,2.09446923828125,-31.329483032226562,-0.5466270446777344,-26.677968978881836
1667915997857544400,2.10454443359375,-31.440719604492188,-0.8499412536621094,-26.651933670043945
1667915997867619300,2.114619384765625,-31.392654418945312,-1.2040252685546875,-26.511850357055664
1667915997877693400,2.124693359375,-31.602218627929688,-1.6284599304199219,-26.329626083374023
1667915997887768300,2.134768310546875,-31.687271118164062,-1.7977371215820312,-26.3560848236084
1667915997897843500,2.144843505859375,-31.843887329101562,-1.9546699523925781,-26.285688400268555
1667915997907918300,2.15491845703125,-31.606552124023438,-2.1868057250976562,-26.148698806762695
1667915997917993200,2.1649931640625,-31.542984008789062,-2.655303955078125,-26.281625747680664
1667915997928068400,2.175068359375,-31.979995727539062,-2.752422332763672,-25.87882423400879
1667915997938142200,2.18514208984375,-31.786575317382812,-2.952503204345703,-25.777803421020508
1667915997948217300,2.19521728515625,-31.668106079101562,-3.114582061767578,-25.778745651245117
1667915997958292200,2.205292236328125,-31.484542846679688,-3.5668716430664062,-26.046998977661133
1667915997968367400,2.215367431640625,-31.658645629882812,-4.206882476806641,-25.82636833190918
1667915997978442500,2.2254423828125,-31.315689086914062,-4.2009429931640625,-25.460359573364258
1667915997988517400,2.235517333984375,-31.367874145507812,-4.361419677734375,-25.738306045532227
1667915997998591500,2.245591552734375,-31.282608032226562,-4.689739227294922,-25.64164161682129
1667915998008666400,2.255666259765625,-31.907943725585938,-4.878925323486328,-25.648088455200195
1667915998018741200,2.2657412109375,-31.810348510742188,-5.392433166503906,-25.35017204284668
1667915998028816100,2.275816162109375,-31.998092651367188,-5.575904846191406,-25.200639724731445
1667915998038891300,2.285891357421875,-31.959243774414062,-5.662059783935547,-25.39116859436035
1667915998048966400,2.29596630859375,-31.626876831054688,-5.930946350097656,-25.360197067260742
1667915998059040300,2.306040283203125,-31.396102905273438,-6.058265686035156,-25.204790115356445
1667915998069115400,2.316115478515625,-31.373275756835938,-6.492279052734375,-25.11696434020996
1667915998079190300,2.326190185546875,-31.456100463867188,-6.661388397216797,-25.12221336364746
1667915998089265400,2.336265380859375,-31.692459106445312,-6.890628814697266,-25.00115394592285
1667915998099340300,2.34634033203125,-31.446487426757812,-6.935337066650391,-25.373441696166992
1667915998109415200,2.356415283203125,-31.043411254882812,-7.059612274169922,-25.27610969543457
1667915998119489500,2.366489501953125,-31.052291870117188,-7.2570648193359375,-25.491987228393555
1667915998129564200,2.376564208984375,-31.008102416992188,-7.3065032958984375,-25.513269424438477
1667915998139639300,2.386639404296875,-30.949722290039062,-7.3795318603515625,-25.951021194458008
1667915998149714200,2.396714111328125,-30.415481567382812,-7.827350616455078,-25.83708381652832
1667915998159789300,2.406789306640625,-30.158187866210938,-7.899600982666016,-26.079172134399414
1667915998169864400,2.416864501953125,-30.401992797851562,-7.977603912353516,-26.315828323364258
1667915998179938300,2.426938232421875,-29.924972534179688,-7.913959503173828,-26.504907608032227
1667915998190013400,2.437013427734375,-29.899673461914062,-8.128238677978516,-26.63294792175293
1667915998200088300,2.44708837890625,-29.637222290039062,-8.126270294189453,-26.48114585876465
1667915998210163500,2.45716357421875,-29.588638305664062,-8.355350494384766,-26.45613670349121
1667915998220238300,2.46723828125,-29.703872680664062,-8.605552673339844,-26.11823081970215
1667915998230313200,2.477313232421875,-29.476242065429688,-8.879844665527344,-26.18421745300293
1667915998240387300,2.48738720703125,-29.488418579101562,-9.107765197753906,-26.21928596496582
1667915998250462200,2.497462158203125,-29.406875610351562,-9.374656677246094,-26.052515029907227
1667915998260537300,2.507537353515625,-29.771072387695312,-9.576271057128906,-25.811464309692383
1667915998270612200,2.5176123046875,-29.648971557617188,-9.867263793945312,-25.8719539642334
1667915998280687400,2.527687255859375,-29.881912231445312,-10.067352294921875,-25.895631790161133
1667915998290762500,2.537762451171875,-29.485549926757812,-10.11932373046875,-25.864675521850586
1667915998300837400,2.54783740234375,-29.529251098632812,-10.314544677734375,-26.066816329956055
1667915998310911500,2.557911376953125,-29.151809692382812,-10.2010498046875,-26.029237747192383
1667915998320986400,2.567986328125,-29.496597290039062,-10.72784423828125,-26.012025833129883
1667915998331061200,2.578061279296875,-29.093185424804688,-10.959609985351562,-26.1304988861084
1667915998341140000,2.588139892578125,-28.925674438476562,-10.927070617675781,-26.043859481811523
1667915998351214800,2.59821484375,-28.905380249023438,-11.24432373046875,-26.112520217895508
1667915998361290000,2.6082900390625,-28.480667114257812,-11.445571899414062,-26.29680824279785
1667915998371363800,2.61836376953125,-28.661911010742188,-11.6043701171875,-26.14365577697754
1667915998381439000,2.62843896484375,-28.683212280273438,-11.65966796875,-26.22209358215332
1667915998391513900,2.638513916015625,-28.656356811523438,-11.718070983886719,-26.06281089782715
1667915998401589000,2.648589111328125,-28.661026000976562,-11.995765686035156,-25.99602699279785
1667915998411664100,2.6586640625,-28.640518188476562,-12.239494323730469,-26.00263786315918
1667915998421738800,2.66873876953125,-28.450149536132812,-12.292510986328125,-25.828828811645508
1667915998431813000,2.678813232421875,-28.352157592773438,-12.705581665039062,-25.654504776000977
1667915998441887700,2.6888876953125,-27.923355102539062,-12.890159606933594,-25.52992820739746
1667915998451963000,2.698962890625,-28.096725463867188,-13.123252868652344,-25.46073341369629
1667915998462038000,2.7090380859375,-28.089920043945312,-13.354286193847656,-25.483434677124023
1667915998472113000,2.71911279296875,-28.194351196289062,-13.390617370605469,-25.56568717956543
1667915998482188000,2.72918798828125,-28.220016479492188,-13.516136169433594,-25.573965072631836
1667915998492262000,2.739261962890625,-27.971969604492188,-13.553123474121094,-25.269800186157227
1667915998502337000,2.7493369140625,-28.041275024414062,-13.962715148925781,-25.17889976501465
1667915998512412000,2.759411865234375,-28.284500122070312,-14.062767028808594,-24.97151756286621
1667915998522487000,2.769487060546875,-28.565597534179688,-14.206527709960938,-25.128576278686523
1667915998532562000,2.77956201171875,-27.753128051757812,-14.461296081542969,-25.090620040893555
1667915998542636800,2.78963671875,-27.982345581054688,-14.568832397460938,-24.785600662231445
1667915998552711000,2.7997109375,-27.837326049804688,-14.899261474609375,-24.821603775024414
1667915998562785800,2.809785888671875,-27.743698120117188,-15.118728637695312,-24.763002395629883
1667915998572861000,2.81986083984375,-27.629135131835938,-15.254623413085938,-24.87920570373535
1667915998582936000,2.82993603515625,-27.736495971679688,-15.366424560546875,-24.78325080871582
1667915998593011000,2.840010986328125,-27.465072631835938,-15.667594909667969,-24.753244400024414
1667915998603086000,2.850086181640625,-26.890487670898438,-15.6513671875,-24.84910774230957
1667915998613160000,2.860159912109375,-27.395339965820312,-15.742446899414062,-24.624929428100586
1667915998623235000,2.870235107421875,-27.661209106445312,-16.017593383789062,-24.4826717376709
1667915998633310000,2.88031005859375,-27.390151977539062,-16.052963256835938,-24.458471298217773
1667915998643384800,2.890384765625,-27.338607788085938,-16.132736206054688,-24.522558212280273
1667915998653460000,2.9004599609375,-27.699325561523438,-16.32245635986328,-24.38807487487793
1667915998663534800,2.910534912109375,-27.464035034179688,-16.249916076660156,-24.391660690307617
1667915998673609000,2.92060888671875,-27.085647583007812,-16.39147186279297,-24.470849990844727
1667915998683683800,2.930683837890625,-26.952285766601562,-16.843772888183594,-24.536211013793945
1667915998693759000,2.940759033203125,-27.187789916992188,-17.152938842773438,-24.360139846801758
1667915998703834000,2.950834228515625,-27.140975952148438,-17.371246337890625,-24.348867416381836
1667915998713909000,2.960908935546875,-27.247482299804688,-17.531829833984375,-24.19481086730957
1667915998723984100,2.970984130859375,-27.067886352539062,-17.810523986816406,-24.249853134155273
1667915998734058000,2.98105810546875,-27.006332397460938,-17.58007049560547,-24.171049118041992
1667915998744133000,2.991133056640625,-26.878952026367188,-17.985855102539062,-24.148710250854492
1667915998754207700,3.001207763671875,-27.032363891601562,-17.951011657714844,-23.776742935180664
1667915998764283000,3.011282958984375,-26.885452270507812,-18.07970428466797,-23.879133224487305
1667915998774358000,3.02135791015625,-26.444107055664062,-17.87230682373047,-23.943937301635742
1667915998784433000,3.031432861328125,-26.428329467773438,-17.873207092285156,-23.81995964050293
1667915998794507000,3.041507080078125,-26.696243286132812,-18.182334899902344,-23.809179306030273
1667915998804582000,3.051581787109375,-26.717056274414062,-18.1395263671875,-23.87553596496582
1667915998814657000,3.061656982421875,-26.474563598632812,-18.225173950195312,-23.906484603881836
1667915998824732000,3.07173193359375,-26.403549194335938,-18.292572021484375,-23.90650749206543
1667915998834807000,3.08180712890625,-26.592453002929688,-18.595657348632812,-23.68182945251465
1667915998844882000,3.0918818359375,-26.812118530273438,-18.444549560546875,-23.644147872924805
1667915998854956000,3.1019560546875,-26.838088989257812,-18.51215362548828,-23.364355087280273
1667915998865031000,3.112031005859375,-26.691299438476562,-18.94562530517578,-23.415868759155273
1667915998875105800,3.122105712890625,-26.901565551757812,-18.976226806640625,-23.26337242126465
1667915998885181000,3.132180908203125,-26.646163940429688,-18.66539764404297,-23.48460578918457
1667915998895256000,3.142256103515625,-26.869033813476562,-18.754791259765625,-23.302377700805664
1667915998905331000,3.1523310546875,-26.430587768554688,-18.62054443359375,-23.64544105529785
1667915998915405000,3.162405029296875,-26.507827758789062,-18.546775817871094,-23.702726364135742
1667915998925480000,3.17247998046875,-26.768051147460938,-18.728736877441406,-23.635927200317383
1667915998935555000,3.18255517578125,-27.016708374023438,-18.857215881347656,-23.76555824279785
1667915998945630000,3.1926298828125,-26.898086547851562,-19.09881591796875,-23.71071434020996
1667915998955704800,3.202704833984375,-26.895126342773438,-19.15332794189453,-23.59111976623535
1667915998965779000,3.212779052734375,-26.335708618164062,-19.014144897460938,-24.149011611938477
1667915998975853800,3.222853759765625,-26.534194946289062,-19.061294555664062,-24.326642990112305
1667915998985929000,3.232928955078125,-26.153854370117188,-19.102210998535156,-24.54191017150879
1667915998996003800,3.24300390625,-26.208602905273438,-19.574996948242188,-24.81415367126465
1667915999006079000,3.253078857421875,-25.849197387695312,-19.476478576660156,-24.86787223815918
1667915999016154000,3.263154052734375,-25.611831665039062,-19.53417205810547,-24.9632625579834
1667915999026228000,3.27322802734375,-25.373397827148438,-19.529327392578125,-25.341524124145508
1667915999036303000,3.28330322265625,-25.146224975585938,-19.58026123046875,-25.2099666595459
1667915999046378000,3.2933779296875,-25.128799438476562,-19.47504425048828,-25.398462295532227
1667915999056452900,3.303452880859375,-25.129592895507812,-19.645713806152344,-25.4536190032959
1667915999066527700,3.31352783203125,-25.658645629882812,-19.66143035888672,-25.236730575561523
1667915999076603000,3.323602783203125,-25.791915893554688,-19.69861602783203,-25.4182186126709
1667915999086676700,3.3336767578125,-25.872299194335938,-19.717483520507812,-25.575429916381836
1667915999096751900,3.343751953125,-25.302932739257812,-19.55652618408203,-25.82415199279785
1667915999106827000,3.353826904296875,-25.276901245117188,-19.668006896972656,-25.9940128326416
1667915999116902000,3.36390185546875,-25.185745239257812,-19.733291625976562,-25.963708877563477
1667915999126977000,3.37397705078125,-25.495864868164062,-19.761322021484375,-26.20591163635254
1667915999137052000,3.384052001953125,-24.909530639648438,-20.039306640625,-26.30991554260254
1667915999147126000,3.3941259765625,-24.851730346679688,-19.923622131347656,-26.70265007019043
1667915999157201200,3.404201171875,-25.137435913085938,-19.809066772460938,-26.803300857543945
1667915999167276000,3.414276123046875,-24.891769409179688,-19.8935546875,-27.341176986694336
1667915999177351000,3.424350830078125,-24.713272094726562,-19.709075927734375,-27.30769920349121
1667915999187425800,3.43442578125,-24.672348022460938,-19.884300231933594,-27.361242294311523
1667915999197501000,3.4445009765625,-24.436386108398438,-19.667556762695312,-27.542097091674805
1667915999207574800,3.45457470703125,-24.182449340820312,-19.706153869628906,-27.53338050842285
1667915999217650000,3.46464990234375,-24.690536499023438,-19.70311737060547,-27.382596969604492
1667915999227725000,3.47472509765625,-24.909530639648438,-20.158599853515625,-27.22871971130371
1667915999237800000,3.484800048828125,-24.798294067382812,-20.200439453125,-27.512250900268555
1667915999247875000,3.494875,-25.050033569335938,-20.496231079101562,-27.086336135864258
1667915999257949000,3.504948974609375,-24.636550903320312,-20.496360778808594,-27.323434829711914
1667915999268024000,3.515024169921875,-24.807632446289062,-20.49456787109375,-26.954252243041992
1667915999278099000,3.525098876953125,-24.944107055664062,-20.65271759033203,-26.876340866088867
1667915999288173800,3.535173828125,-24.933120727539062,-21.065673828125,-26.983922958374023
1667915999298249000,3.5452490234375,-24.719680786132812,-20.892494201660156,-26.92475700378418
1667915999308323800,3.55532373046875,-24.208480834960938,-20.654823303222656,-27.122068405151367
1667915999318398000,3.56539794921875,-24.622756958007812,-21.043800354003906,-27.063478469848633
1667915999328472800,3.575472900390625,-25.120010375976562,-21.064544677734375,-27.0192928314209
1667915999338548000,3.5855478515625,-25.078140258789062,-21.01384735107422,-26.829660415649414
1667915999348619500,3.59561962890625,-24.794357299804688,-21.1156005859375,-27.0479793548584
1667915999358694400,3.6056943359375,-24.715438842773438,-21.198104858398438,-27.103837966918945
1667915999368769300,3.615769287109375,-24.868026733398438,-21.31000518798828,-27.03105354309082
1667915999378843400,3.625843505859375,-24.601577758789062,-21.222015380859375,-27.1104793548584
1667915999388918300,3.635918212890625,-24.746810913085938,-20.96234893798828,-27.40684700012207
1667915999398993200,3.6459931640625,-24.780960083007812,-21.23108673095703,-27.16718864440918
1667915999409068300,3.656068359375,-25.046890258789062,-21.542762756347656,-27.09953498840332
1667915999419143400,3.666143310546875,-24.924819946289062,-21.557220458984375,-27.114774703979492
1667915999429217300,3.67621728515625,-24.999008178710938,-21.44428253173828,-26.97395133972168
1667915999439292400,3.68629248046875,-25.133926391601562,-21.265426635742188,-26.945466995239258
1667915999449367300,3.6963671875,-24.915847778320312,-21.268447875976562,-26.883195877075195
1667915999459442400,3.7064423828125,-24.885482788085938,-21.32758331298828,-27.138402938842773
1667915999469517600,3.716517578125,-24.761856079101562,-21.08887481689453,-27.340688705444336
1667915999479592400,3.726592529296875,-24.566299438476562,-21.04730987548828,-27.234487533569336
1667915999489666600,3.73666650390625,-24.333847045898438,-21.02777862548828,-27.179548263549805
1667915999499741400,3.746741455078125,-24.661849975585938,-21.080810546875,-27.096559524536133
1667915999509816300,3.75681640625,-24.418685913085938,-20.919158935546875,-27.24851417541504
1667915999519891200,3.76689111328125,-24.756332397460938,-21.03289031982422,-27.07399559020996
1667915999529966300,3.77696630859375,-24.512588500976562,-20.873497009277344,-27.059194564819336
1667915999540041500,3.78704150390625,-24.705642700195312,-20.71648406982422,-27.169336318969727
1667915999550115300,3.797115234375,-24.457534790039062,-20.6611328125,-26.920305252075195
1667915999560190500,3.8071904296875,-24.631790161132812,-20.611244201660156,-26.88817024230957
1667915999570265300,3.817265380859375,-24.520370483398438,-20.713966369628906,-26.975557327270508
1667915999580340500,3.827340576171875,-24.390151977539062,-20.573257446289062,-26.974523544311523
1667915999590415400,3.837415283203125,-24.052902221679688,-20.785003662109375,-27.101587295532227
1667915999600489500,3.847489501953125,-23.834121704101562,-20.90313720703125,-26.86942481994629
1667915999610564400,3.857564453125,-23.848159790039062,-20.696189880371094,-27.030595779418945
1667915999620639200,3.86763916015625,-23.621353149414062,-20.73035430908203,-26.77180290222168
1667915999630714400,3.87771435546875,-23.533950805664062,-20.657928466796875,-26.8344783782959
1667915999640789200,3.887789306640625,-23.330490112304688,-20.498313903808594,-26.801130294799805
1667915999650864400,3.897864501953125,-23.356887817382812,-20.368682861328125,-26.55680274963379
1667915999660938200,3.907938232421875,-23.264419555664062,-20.481422424316406,-26.66651725769043
1667915999671013400,3.918013427734375,-23.083358764648438,-20.324508666992188,-26.364553451538086
1667915999681088500,3.928088623046875,-23.182662963867188,-20.36974334716797,-26.09467887878418
1667915999691163400,3.938163330078125,-23.140182495117188,-20.70838165283203,-26.180570602416992
1667915999701238300,3.94823828125,-22.996963500976562,-20.689315795898438,-26.15131187438965
1667915999711312400,3.9583125,-23.032119750976562,-20.54271697998047,-26.269128799438477
1667915999721387300,3.96838720703125,-23.184402465820312,-20.56842041015625,-26.09919548034668
1667915999731462100,3.978462158203125,-22.569229125976562,-20.607208251953125,-25.958593368530273
1667915999741537300,3.988537353515625,-22.847274780273438,-20.288131713867188,-25.9252986907959
1667915999751612400,3.9986123046875,-22.772750854492188,-20.398025512695312,-25.8891658782959
1667915999761687300,4.008687255859375,-22.497634887695312,-20.184417724609375,-25.84187889099121
1667915999771761400,4.018761474609375,-22.611923217773438,-20.465988159179688,-25.80055046081543
1667915999781836300,4.028836181640625,-22.721664428710938,-20.337722778320312,-25.595956802368164
1667915999791911400,4.038911376953125,-22.653884887695312,-20.56084442138672,-25.34034538269043
1667915999801986600,4.048986572265625,-22.362686157226562,-20.357276916503906,-25.260446548461914
1667915999812061200,4.059061279296875,-22.669021606445312,-20.44208526611328,-25.052221298217773
1667915999822135600,4.069135498046875,-22.801620483398438,-20.499244689941406,-24.781644821166992
1667915999832210200,4.079210205078125,-22.774276733398438,-20.39582061767578,-24.81581687927246
1667915999842285300,4.089285400390625,-22.803909301757812,-20.11407470703125,-24.72843360900879
1667915999852360200,4.099360107421875,-22.607223510742188,-20.259376525878906,-24.405370712280273
1667915999862435300,4.109435302734375,-22.507064819335938,-20.272979736328125,-24.765958786010742
1667915999872510500,4.119510498046875,-22.719345092773438,-19.973587036132812,-24.8594913482666
1667915999882584300,4.129584228515625,-22.635025024414062,-19.981689453125,-24.509618759155273
1667915999892659500,4.139659423828125,-22.333633422851562,-20.22875213623047,-24.51743507385254
1667915999902734300,4.149734375,-22.541915893554688,-20.23755645751953,-24.479063034057617
1667915999912809500,4.1598095703125,-22.434280395507812,-20.097862243652344,-24.561559677124023
1667915999922884400,4.16988427734375,-22.082809448242188,-19.95787811279297,-24.65278434753418
1667915999932958500,4.17995849609375,-22.074691772460938,-19.53722381591797,-24.6016902923584
1667915999943033300,4.190033447265625,-22.337692260742188,-19.80999755859375,-24.43491554260254
1667915999953108200,4.200108154296875,-22.262771606445312,-19.697113037109375,-24.579145431518555
1667915999963183400,4.210183349609375,-22.342605590820312,-19.705116271972656,-24.37553596496582
1667915999973258200,4.22025830078125,-22.285812377929688,-19.80231475830078,-24.533414840698242
1667915999983332400,4.230332275390625,-21.843612670898438,-19.759353637695312,-24.522886276245117
1667915999993407200,4.2404072265625,-21.614639282226562,-19.757095336914062,-24.65189552307129
1667916000003482400,4.250482421875,-21.778366088867188,-19.78266143798828,-24.86226463317871
1667916000013557500,4.2605576171875,-21.540603637695312,-19.84386444091797,-24.89705467224121
1667916000023632400,4.27063232421875,-21.163528442382812,-19.821983337402344,-25.053373336791992
1667916000033707300,4.280707275390625,-20.769668579101562,-19.661460876464844,-25.198266983032227
1667916000043781400,4.290781494140625,-20.897933959960938,-19.31305694580078,-25.152372360229492
1667916000053856300,4.300856201171875,-20.763137817382812,-19.18872833251953,-24.894376754760742
1667916000063931400,4.310931396484375,-20.593032836914062,-19.31511688232422,-24.88747215270996
1667916000074006300,4.32100634765625,-20.463638305664062,-19.32703399658203,-24.71645164489746
1667916000084081400,4.331081298828125,-20.596237182617188,-19.354042053222656,-24.387365341186523
1667916000094155300,4.3411552734375,-20.705368041992188,-19.824134826660156,-24.22307014465332
1667916000104230400,4.35123046875,-20.534652709960938,-19.72760772705078,-24.115625381469727
1667916000114305300,4.36130517578125,-20.416915893554688,-19.73828125,-24.24994468688965
1667916000124380400,4.37138037109375,-20.701095581054688,-19.758705139160156,-24.328168869018555
1667916000134454300,4.381454345703125,-20.270614624023438,-19.775390625,-23.945295333862305
1667916000144529400,4.391529296875,-19.813186645507812,-19.685890197753906,-24.13169288635254
1667916000154604500,4.4016044921875,-19.903671264648438,-19.88507080078125,-24.006986618041992
1667916000164679200,4.41167919921875,-19.771163940429688,-19.803977966308594,-24.185598373413086
1667916000174754300,4.42175439453125,-19.732162475585938,-19.872535705566406,-24.23545265197754
1667916000184828200,4.431828125,-19.558029174804688,-19.93407440185547,-24.339052200317383
1667916000194903300,4.4419033203125,-19.472885131835938,-19.963462829589844,-24.2485408782959
1667916000204978400,4.451978515625,-19.272018432617188,-20.233062744140625,-24.289018630981445
1667916000215053300,4.46205322265625,-19.506179809570312,-20.256103515625,-24.01875114440918
1667916000225128400,4.47212841796875,-19.606277465820312,-20.496353149414062,-23.980714797973633
1667916000235202300,4.482202392578125,-19.287948608398438,-20.428627014160156,-23.719125747680664
1667916000245277400,4.49227734375,-19.607406616210938,-20.489578247070312,-23.810392379760742
1667916000255352300,4.502352294921875,-20.104293823242188,-20.892501831054688,-23.520795822143555
1667916000265427500,4.512427490234375,-20.241165161132812,-20.695228576660156,-23.21827507019043
1667916000275502300,4.52250244140625,-19.619033813476562,-20.650466918945312,-23.366029739379883
1667916000285576400,4.532576416015625,-19.598892211914062,-20.781356811523438,-23.00002098083496
1667916000295651300,4.5426513671875,-20.147323608398438,-20.474029541015625,-22.750207901000977
1667916000305726200,4.552726318359375,-20.115066528320312,-20.656089782714844,-22.530202865600586
1667916000315801300,4.56280126953125,-20.140884399414062,-20.512481689453125,-22.798768997192383
1667916000325876200,4.572876220703125,-20.090530395507812,-20.308700561523438,-22.68779945373535
1667916000335951400,4.582951416015625,-20.189834594726562,-20.415916442871094,-22.667428970336914
1667916000346025500,4.593025390625,-20.187240600585938,-20.605262756347656,-22.619592666625977
1667916000356100600,4.6031005859375,-19.707656860351562,-20.677169799804688,-22.659082412719727
1667916000366175500,4.613175537109375,-19.642105102539062,-20.66094970703125,-23.095861434936523
1667916000376250600,4.623250732421875,-19.704086303710938,-20.359474182128906,-23.314226150512695
1667916000386325500,4.633325439453125,-19.630661010742188,-20.40312957763672,-23.328737258911133
1667916000396399600,4.643399658203125,-19.695083618164062,-20.552703857421875,-23.454011917114258
1667916000406474500,4.653474609375,-19.657241821289062,-20.404647827148438,-23.564603805541992
1667916000416549400,4.66354931640625,-19.490341186523438,-20.656326293945312,-23.54469871520996
1667916000426624500,4.67362451171875,-19.171035766601562,-20.446151733398438,-23.786115646362305
1667916000436699400,4.683699462890625,-18.938369750976562,-20.509368896484375,-23.9146785736084
1667916000446773500,4.6937734375,-18.799270629882812,-20.170013427734375,-23.915746688842773
1667916000456848400,4.703848388671875,-18.702896118164062,-20.293312072753906,-23.92191505432129
1667916000466923500,4.713923583984375,-18.782546997070312,-20.26666259765625,-24.1656436920166
1667916000476998700,4.72399853515625,-18.782546997070312,-20.26666259765625,-24.1656436920166
1667916000487073500,4.734073486328125,-18.782546997070312,-20.26666259765625,-24.1656436920166
1667916000497147600,4.744147705078125,-18.782546997070312,-20.26666259765625,-24.1656436920166
1667916000507222500,4.754222412109375,-18.782546997070312,-20.26666259765625,-24.1656436920166
1667916000517297400,4.76429736328125,-18.283706665039062,-20.299400329589844,-23.605443954467773
1667916000527372500,4.77437255859375,-18.774154663085938,-20.43829345703125,-23.551050186157227
1667916000537447400,4.784447509765625,-18.760360717773438,-20.610549926757812,-23.512971878051758
1667916000547521500,4.794521484375,-18.788742065429688,-20.655685424804688,-23.70735740661621
1667916000557596400,4.804596435546875,-18.639450073242188,-20.739234924316406,-23.91730308532715
1667916000567671600,4.814671630859375,-18.615921020507812,-20.678817749023438,-24.08644676208496
1667916000577746400,4.824746337890625,-18.555038452148438,-20.71923828125,-24.161867141723633
1667916000587821600,4.834821533203125,-18.559432983398438,-20.705276489257812,-24.195600509643555
1667916000597896400,4.844896484375,-18.612258911132812,-20.80792999267578,-24.144540786743164
1667916000607970600,4.854970458984375,-18.740310668945312,-20.794937133789062,-23.99643898010254
1667916000618045700,4.865045654296875,-18.640945434570312,-20.814956665039062,-23.88050651550293
1667916000628120300,4.875120361328125,-18.462081909179688,-20.78675079345703,-23.74672508239746
1667916000638195500,4.885195556640625,-18.452316284179688,-20.87187957763672,-23.658239364624023
1667916000648270300,4.895270263671875,-18.394271850585938,-20.951644897460938,-23.440237045288086
1667916000658344400,4.905344482421875,-18.303939819335938,-20.85302734375,-23.385080337524414
1667916000668419300,4.91541943359375,-18.431411743164062,-20.885459899902344,-23.34385871887207
1667916000678494500,4.925494384765625,-18.640151977539062,-20.803726196289062,-23.141862869262695
1667916000688569600,4.935569580078125,-18.797348022460938,-20.78235626220703,-23.155641555786133
1667916000698644500,4.94564453125,-19.012100219726562,-20.85028076171875,-23.111818313598633
1667916000708718600,4.955718505859375,-19.034896850585938,-20.866294860839844,-23.256860733032227
1667916000718793500,4.96579345703125,-19.032760620117188,-20.760284423828125,-23.19732093811035
1667916000728868600,4.97586865234375,-18.855514526367188,-20.731857299804688,-23.154245376586914
1667916000738943500,4.985943603515625,-18.818344116210938,-20.727523803710938,-23.157060623168945
1667916000749018400,4.996018310546875,-18.630844116210938,-20.642349243164062,-23.38017463684082
1667916000759093500,5.006093505859375,-18.629592895507812,-20.689056396484375,-23.419157028198242
1667916000769168400,5.01616845703125,-18.673751831054688,-20.665283203125,-23.2941837310791
1667916000779242500,5.026242431640625,-18.615554809570312,-20.829025268554688,-23.158430099487305
1667916000789317400,5.0363173828125,-18.778427124023438,-20.73009490966797,-23.159318923950195
1667916000799392500,5.046392578125,-18.981826782226562,-20.79125213623047,-23.03342628479004
1667916000809467600,5.056467529296875,-18.985702514648438,-20.79790496826172,-22.912790298461914
1667916000819542500,5.06654248046875,-19.053115844726562,-20.712387084960938,-22.756959915161133
1667916000829616600,5.07661669921875,-19.031356811523438,-20.716461181640625,-22.76397132873535
1667916000839691500,5.08669140625,-19.045272827148438,-20.72821044921875,-22.602815628051758
1667916000849766400,5.096766357421875,-19.109817504882812,-20.736648559570312,-22.533315658569336
1667916000859841500,5.106841552734375,-19.189346313476562,-21.01911163330078,-22.4876766204834
1667916000869916400,5.11691650390625,-19.430374145507812,-21.222312927246094,-22.09745216369629
1667916000879990500,5.126990478515625,-19.552413940429688,-21.209877014160156,-22.031484603881836
1667916000890065400,5.1370654296875,-19.424209594726562,-21.31816864013672,-21.8896541595459
1667916000900140500,5.147140625,-19.397079467773438,-21.263702392578125,-21.77989387512207
1667916000910215400,5.15721533203125,-19.630844116210938,-21.075851440429688,-21.576738357543945
1667916000920290600,5.16729052734375,-19.851364135742188,-21.167373657226562,-21.30186653137207
1667916000930364400,5.177364501953125,-19.936599731445312,-21.23834991455078,-21.161325454711914
1667916000940439600,5.187439453125,-20.047714233398438,-21.464820861816406,-20.969301223754883
1667916000950514400,5.197514404296875,-20.052261352539062,-21.572738647460938,-20.96345329284668
1667916000960589300,5.20758935546875,-20.149459838867188,-21.42823028564453,-21.053438186645508
1667916000970664400,5.21766455078125,-20.072952270507812,-21.260467529296875,-21.025693893432617
1667916000980738300,5.22773828125,-20.138809204101562,-21.205421447753906,-21.074678421020508
1667916000990813400,5.2378134765625,-20.009506225585938,-21.065765380859375,-21.049367904663086
1667916001000888600,5.247888671875,-19.823776245117188,-20.94195556640625,-21.152742385864258
1667916001010963500,5.25796337890625,-19.745193481445312,-20.84161376953125,-21.170427322387695
1667916001021038600,5.26803857421875,-19.790145874023438,-20.851043701171875,-21.295549392700195
1667916001031112400,5.278112548828125,-19.901321411132812,-20.780807495117188,-21.275304794311523
1667916001041187600,5.2881875,-20.012191772460938,-20.657684326171875,-21.22310447692871
1667916001051262500,5.298262451171875,-20.040695190429688,-20.545738220214844,-21.111433029174805
1667916001061337300,5.30833740234375,-20.125198364257812,-20.3585205078125,-21.02928352355957
1667916001071412500,5.31841259765625,-20.167190551757812,-20.43206024169922,-21.040212631225586
1667916001081486300,5.328486328125,-20.026718139648438,-20.42974853515625,-21.152441024780273
1667916001091561500,5.3385615234375,-20.008804321289062,-20.379249572753906,-21.117158889770508
1667916001101636400,5.34863623046875,-20.022354125976562,-20.193832397460938,-21.310834884643555
1667916001111711500,5.35871142578125,-20.009201049804688,-20.16413116455078,-21.284128189086914
1667916001121786600,5.36878662109375,-19.968643188476562,-20.164405822753906,-21.279321670532227
1667916001131860500,5.378860595703125,-20.065628051757812,-20.064422607421875,-21.3398494720459
1667916001141935600,5.388935546875,-20.015945434570312,-19.96552276611328,-21.33967399597168
1667916001152010500,5.399010498046875,-19.769577026367188,-19.763519287109375,-21.25589942932129
1667916001162085600,5.409085693359375,-19.779586791992188,-19.732810974121094,-21.177202224731445
1667916001172160500,5.419160400390625,-19.774948120117188,-19.689712524414062,-21.228837966918945
1667916001182234600,5.429234619140625,-19.909255981445312,-19.712059020996094,-21.12953758239746
1667916001192309500,5.4393095703125,-20.106369018554688,-19.727554321289062,-21.065393447875977
1667916001202384400,5.44938427734375,-20.353378295898438,-19.64661407470703,-20.968523025512695
1667916001212459500,5.45945947265625,-20.248458862304688,-19.486900329589844,-20.99397087097168
1667916001222534400,5.469534423828125,-20.388137817382812,-19.46129608154297,-20.92497444152832
1667916001232608500,5.4796083984375,-20.450393676757812,-19.402740478515625,-21.03718376159668
1667916001242683400,5.489683349609375,-20.270706176757812,-19.423805236816406,-21.1792049407959
1667916001252758500,5.499758544921875,-20.286849975585938,-19.48157501220703,-21.255170822143555
1667916001262833700,5.509833740234375,-20.197769165039062,-19.562416076660156,-21.185117721557617
1667916001272907500,5.519907470703125,-20.152328491210938,-19.60926055908203,-21.20909309387207
1667916001282982700,5.529982666015625,-20.140365600585938,-19.52942657470703,-21.300188064575195
1667916001293057500,5.5400576171875,-20.245681762695312,-19.616256713867188,-21.31800651550293
1667916001303132400,5.55013232421875,-20.495346069335938,-19.720382690429688,-21.21026039123535
1667916001313207300,5.560207275390625,-20.590744018554688,-19.73375701904297,-21.158430099487305
1667916001323281400,5.570281494140625,-20.594497680664062,-19.759414672851562,-21.023469924926758
1667916001333356300,5.580356201171875,-20.608627319335938,-19.684913635253906,-20.813962936401367
1667916001343434500,5.5904345703125,-20.819320678710938,-19.75616455078125,-20.74656105041504
1667916001353509600,5.600509521484375,-20.890274047851562,-19.74645233154297,-20.556238174438477
1667916001363584800,5.610584716796875,-20.796127319335938,-19.70313262939453,-20.35630989074707
1667916001373658600,5.62065869140625,-20.827438354492188,-19.70935821533203,-20.20998191833496
1667916001383733800,5.630733642578125,-20.978073120117188,-19.734085083007812,-20.02353858947754
1667916001393808600,5.64080859375,-21.247512817382812,-19.685157775878906,-19.993757247924805
1667916001403883800,5.6508837890625,-21.277450561523438,-19.678436279296875,-19.963274002075195
1667916001413959000,5.660958984375,-21.279678344726562,-19.625167846679688,-20.08287239074707
1667916001424032800,5.67103271484375,-21.255508422851562,-19.447982788085938,-20.233549118041992
1667916001434108000,5.68110791015625,-21.211593627929688,-19.432289123535156,-20.296506881713867
1667916001444182500,5.6911826171875,-21.064620971679688,-19.40978240966797,-20.582773208618164
1667916001454257700,5.701257568359375,-21.062515258789062,-19.465438842773438,-20.6843318939209
1667916001464332500,5.71133251953125,-20.948501586914062,-19.393653869628906,-20.820344924926758
1667916001474406700,5.72140673828125,-20.962326049804688,-19.45642852783203,-20.93861198425293
1667916001484481500,5.7314814453125,-21.054580688476562,-19.390579223632812,-20.888315200805664
1667916001494556700,5.741556640625,-20.888015747070312,-19.471664428710938,-20.8275089263916
1667916001504631800,5.7516318359375,-20.832473754882812,-19.55718231201172,-20.70811653137207
1667916001514706700,5.761706787109375,-21.092788696289062,-19.576148986816406,-20.625802993774414
1667916001524780800,5.77178076171875,-21.043777465820312,-19.353988647460938,-20.655797958374023
1667916001534855700,5.781855712890625,-21.114700317382812,-19.302452087402344,-20.3896541595459
1667916001544930800,5.791930908203125,-21.153854370117188,-19.400962829589844,-20.15900993347168
1667916001555005700,5.802005615234375,-21.390640258789062,-19.400146484375,-19.940542221069336
1667916001565079800,5.812079833984375,-21.413375854492188,-19.350868225097656,-19.813753128051758
1667916001575154700,5.82215478515625,-21.656204223632812,-19.38922119140625,-19.6731014251709
1667916001585229600,5.8322294921875,-21.586929321289062,-19.378402709960938,-19.602266311645508
1667916001595304700,5.8423046875,-21.490768432617188,-19.420188903808594,-19.709375381469727
1667916001605379600,5.852379638671875,-21.714492797851562,-19.605316162109375,-19.793272018432617
1667916001615453700,5.86245361328125,-21.847305297851562,-19.636505126953125,-19.826025009155273
1667916001625528600,5.872528564453125,-21.805068969726562,-19.804466247558594,-19.901762008666992
1667916001635603700,5.882603759765625,-21.738906860351562,-20.029075622558594,-20.069162368774414
1667916001645678800,5.892678955078125,-21.593795776367188,-19.95208740234375,-20.20979118347168
1667916001655753700,5.902753662109375,-21.383895874023438,-19.895912170410156,-20.368993759155273
1667916001665827800,5.912827880859375,-21.568893432617188,-20.00212860107422,-20.240053176879883
1667916001675902700,5.92290283203125,-21.505935668945312,-20.04498291015625,-20.154672622680664
1667916001685977600,5.9329775390625,-21.505966186523438,-20.110084533691406,-20.063642501831055
1667916001696052700,5.943052734375,-21.826522827148438,-20.14618682861328,-19.840917587280273
1667916001706127600,5.953127685546875,-22.138290405273438,-20.1334228515625,-19.585481643676758
1667916001716201700,5.96320166015625,-22.468795776367188,-20.11139678955078,-19.47344398498535
1667916001726276600,5.973276611328125,-22.527847290039062,-20.159629821777344,-19.263582229614258
1667916001736351700,5.983351806640625,-22.471115112304688,-20.112655639648438,-19.17763328552246
1667916001746426600,5.993426513671875,-22.372177124023438,-20.04387664794922,-19.05024528503418
1667916001756500700,6.003500732421875,-22.481918334960938,-20.070098876953125,-18.98319435119629
1667916001766575600,6.01357568359375,-22.638107299804688,-20.04663848876953,-19.03566551208496
1667916001776650800,6.023650634765625,-22.545639038085938,-20.0755615234375,-19.250295639038086
1667916001786725600,6.0337255859375,-22.396957397460938,-20.00653839111328,-19.409669876098633
1667916001796800500,6.043800537109375,-22.241958618164062,-19.955978393554688,-19.638830184936523
1667916001806875000,6.053875,-22.216079711914062,-19.83068084716797,-19.732194900512695
1667916001816949500,6.063949462890625,-22.239242553710938,-19.80028533935547,-19.755720138549805
1667916001827024600,6.074024658203125,-22.214218139648438,-19.869712829589844,-19.774293899536133
1667916001837099800,6.084099853515625,-22.206497192382812,-19.886398315429688,-19.69630241394043
1667916001847174700,6.094174560546875,-22.236129760742188,-19.816078186035156,-19.6556339263916
1667916001857248800,6.104248779296875,-22.375167846679688,-19.798782348632812,-19.618627548217773
1667916001867323600,6.11432373046875,-22.395248413085938,-19.93769073486328,-19.532163619995117
1667916001877398800,6.124398681640625,-22.430709838867188,-20.062576293945312,-19.591726303100586
1667916001887473700,6.1344736328125,-22.389938354492188,-20.16594696044922,-19.556337356567383
1667916001897548800,6.144548828125,-22.359664916992188,-20.209548950195312,-19.461740493774414
1667916001907622700,6.15462255859375,-22.398788452148438,-20.240440368652344,-19.338396072387695
1667916001917697800,6.16469775390625,-22.376724243164062,-20.237686157226562,-19.260099411010742
1667916001927772700,6.174772705078125,-22.529739379882812,-20.465713500976562,-19.03261375427246
1667916001937847600,6.18484765625,-22.696426391601562,-20.662635803222656,-18.961244583129883
1667916001947921700,6.194921630859375,-22.742111206054688,-20.681900024414062,-18.989835739135742
1667916001957996500,6.20499658203125,-22.805740356445312,-20.729949951171875,-18.998300552368164
1667916001968071700,6.21507177734375,-22.718734741210938,-20.853302001953125,-19.00950813293457
1667916001978146800,6.225146728515625,-22.728683471679688,-20.874107360839844,-19.032827377319336
1667916001988221700,6.2352216796875,-22.871261596679688,-20.80681610107422,-18.943994522094727
1667916001998295800,6.2452958984375,-23.004440307617188,-20.923316955566406,-18.968149185180664
1667916002008370700,6.25537060546875,-23.127090454101562,-20.969322204589844,-19.107141494750977
1667916002018445800,6.26544580078125,-23.142715454101562,-21.041114807128906,-19.15748405456543
1667916002028520700,6.275520751953125,-23.193038940429688,-21.109146118164062,-19.09861946105957
1667916002038595600,6.285595703125,-23.126937866210938,-21.097618103027344,-18.976091384887695
1667916002048669700,6.295669677734375,-23.167678833007812,-21.147811889648438,-18.988340377807617
1667916002058744600,6.30574462890625,-23.007492065429688,-21.129928588867188,-18.922021865844727
1667916002068819700,6.31581982421875,-23.084915161132812,-21.220130920410156,-18.902544021606445
1667916002078894600,6.32589453125,-23.160507202148438,-21.36266326904297,-18.89362907409668
1667916002088968700,6.33596875,-23.307388305664062,-21.49854278564453,-18.75031852722168
1667916002099043600,6.346043701171875,-23.293563842773438,-21.50672149658203,-18.856294631958008
1667916002109118700,6.35611865234375,-23.285964965820312,-21.6937255859375,-18.80510139465332
1667916002119193900,6.36619384765625,-23.446121215820312,-21.73845672607422,-18.704710006713867
1667916002129268700,6.376268798828125,-23.502914428710938,-21.612457275390625,-18.609067916870117
1667916002139342800,6.3863427734375,-23.519058227539062,-21.608810424804688,-18.427331924438477
1667916002149417700,6.396417724609375,-23.676315307617188,-21.53003692626953,-18.374910354614258
1667916002159492600,6.40649267578125,-23.879318237304688,-21.65904998779297,-18.53120994567871
1667916002169567500,6.4165673828125,-24.032577514648438,-21.695457458496094,-18.762834548950195
1667916002179641600,6.4266416015625,-24.239791870117188,-21.86083984375,-18.882314682006836
1667916002189716500,6.436716552734375,-24.278701782226562,-22.002243041992188,-18.894540786743164
1667916002199791600,6.44679150390625,-24.244522094726562,-22.120399475097656,-18.92499351501465
1667916002209866800,6.45686669921875,-24.110458374023438,-22.18328857421875,-18.990358352661133
1667916002219941600,6.466941650390625,-23.902908325195312,-22.291053771972656,-19.012540817260742
1667916002230015700,6.477015625,-23.794265747070312,-22.311546325683594,-19.081274032592773
1667916002240090600,6.487090576171875,-23.913711547851562,-22.35430145263672,-19.038572311401367
1667916002250165800,6.497165771484375,-24.112503051757812,-22.434921264648438,-19.05735206604004
1667916002260241000,6.507240966796875,-24.091690063476562,-22.52948760986328,-18.961748123168945
1667916002270314800,6.517314697265625,-23.960830688476562,-22.63567352294922,-18.98384666442871
1667916002280390000,6.527389892578125,-24.175491333007812,-22.771095275878906,-18.745267868041992
1667916002290464500,6.537464599609375,-24.499923706054688,-22.98626708984375,-18.50837516784668
1667916002300539600,6.54753955078125,-24.461685180664062,-22.96575927734375,-18.34547996520996
1667916002310614500,6.557614501953125,-24.531478881835938,-23.135292053222656,-18.1373348236084
1667916002320688600,6.567688720703125,-24.575088500976562,-23.21179962158203,-18.042104721069336
1667916002330763500,6.577763427734375,-24.671401977539062,-23.371978759765625,-17.97987174987793
1667916002340838700,6.587838623046875,-24.883865356445312,-23.55950164794922,-18.12235450744629
1667916002350910000,6.597909912109375,-24.816604614257812,-23.657142639160156,-17.99015998840332
1667916002360985000,6.607985107421875,-24.680191040039062,-23.856231689453125,-17.94981575012207
1667916002371059000,6.618058837890625,-24.375320434570312,-24.001792907714844,-18.092370986938477
1667916002381134000,6.628134033203125,-24.578323364257812,-23.98285675048828,-17.967119216918945
1667916002391209000,6.638208984375,-24.473617553710938,-23.866439819335938,-17.9823055267334
1667916002401284000,6.6482841796875,-24.499649047851562,-24.088592529296875,-18.02471351623535
1667916002411358000,6.65835791015625,-24.413589477539062,-24.180770874023438,-17.928770065307617
1667916002421433000,6.66843310546875,-24.516342163085938,-24.28112030029297,-17.86326789855957
1667916002431507700,6.6785078125,-24.666702270507812,-24.362045288085938,-17.873716354370117
1667916002441582800,6.688582763671875,-24.864639282226562,-24.406112670898438,-17.71787452697754
1667916002451658000,6.698657958984375,-24.880874633789062,-24.415130615234375,-17.595895767211914
1667916002461731800,6.70873193359375,-25.134292602539062,-24.641799926757812,-17.180513381958008
1667916002471807000,6.718806884765625,-25.234420776367188,-24.81279754638672,-16.945953369140625
1667916002481881900,6.7288818359375,-25.289657592773438,-24.77399444580078,-16.563199996948242
1667916002491957000,6.73895703125,-25.479782104492188,-24.976776123046875,-16.38575553894043
1667916002502030800,6.74903076171875,-25.227401733398438,-25.027175903320312,-16.344377517700195
1667916002512106000,6.75910595703125,-25.317306518554688,-25.163742065429688,-16.16779136657715
1667916002522181000,6.76918115234375,-25.407089233398438,-25.27838134765625,-16.04463768005371
1667916002532256000,6.779256103515625,-25.436660766601562,-25.367042541503906,-15.997066497802734
1667916002542331000,6.789330810546875,-25.502975463867188,-25.596099853515625,-15.879474639892578
1667916002552405000,6.799405029296875,-25.767074584960938,-25.745223999023438,-15.673709869384766
1667916002562479900,6.80947998046875,-25.851303100585938,-25.805068969726562,-15.552980422973633
1667916002572554800,6.8195546875,-25.933883666992188,-25.86756134033203,-15.295703887939453
1667916002582630000,6.8296298828125,-25.876602172851562,-26.051849365234375,-15.169559478759766
1667916002592703700,6.839703857421875,-25.794479370117188,-26.216033935546875,-15.123363494873047
1667916002602779000,6.84977880859375,-25.918869018554688,-26.246383666992188,-14.918411254882812
1667916002612854000,6.85985400390625,-25.874832153320312,-26.401214599609375,-14.854850769042969
1667916002622929000,6.869928955078125,-25.664779663085938,-26.563003540039062,-14.710737228393555
1667916002633004000,6.880004150390625,-25.661331176757812,-26.61394500732422,-14.589683532714844
1667916002643078000,6.890077880859375,-25.649032592773438,-26.60455322265625,-14.409460067749023
1667916002653153000,6.900153076171875,-25.626174926757812,-26.680442810058594,-14.248558044433594
1667916002663228200,6.910228271484375,-25.801925659179688,-26.835479736328125,-14.198026657104492
1667916002673302800,6.920302734375,-25.813278198242188,-26.889015197753906,-14.139511108398438
1667916002683377200,6.930377197265625,-25.674789428710938,-26.92475128173828,-14.008031845092773
1667916002693451800,6.94045166015625,-25.587234497070312,-27.068115234375,-13.823923110961914
1667916002703527000,6.95052685546875,-25.426162719726562,-27.364341735839844,-13.849321365356445
1667916002713601800,6.960601806640625,-25.134719848632812,-27.522499084472656,-13.845722198486328
1667916002723677000,6.970677001953125,-25.099014282226562,-27.5660400390625,-13.820222854614258
1667916002733750800,6.980750732421875,-25.063766479492188,-27.694442749023438,-13.666616439819336
1667916002743826000,6.990825927734375,-25.016189575195312,-27.794654846191406,-13.513193130493164
1667916002753901000,7.000901123046875,-25.017288208007812,-27.911514282226562,-13.557247161865234
1667916002763976000,7.010975830078125,-24.960464477539062,-27.86823272705078,-13.489683151245117
1667916002774050000,7.021050048828125,-24.750015258789062,-28.042762756347656,-13.556756973266602
1667916002784125000,7.031125,-24.630050659179688,-28.050445556640625,-13.548141479492188
1667916002794200000,7.041199951171875,-24.497238159179688,-28.087875366210938,-13.448514938354492
1667916002804275000,7.05127490234375,-24.431381225585938,-28.172256469726562,-13.271331787109375
1667916002814349800,7.061349853515625,-24.368301391601562,-28.24901580810547,-13.139591217041016
1667916002824424000,7.071423828125,-24.574050903320312,-28.398208618164062,-12.816795349121094
1667916002834498800,7.081498779296875,-24.408767700195312,-28.367218017578125,-12.671195983886719
1667916002844574000,7.091573974609375,-24.354324340820312,-28.440521240234375,-12.520914077758789
1667916002854648800,7.10164892578125,-24.304275512695312,-28.436065673828125,-12.340633392333984
1667916002864723000,7.111722900390625,-24.344741821289062,-28.608230590820312,-12.159412384033203
1667916002874797800,7.1217978515625,-24.133224487304688,-28.61450958251953,-12.183418273925781
1667916002884873000,7.131873046875,-24.268234252929688,-28.56707763671875,-11.999492645263672
1667916002894948000,7.141947998046875,-24.132644653320312,-28.532180786132812,-12.008047103881836
1667916002905023000,7.15202294921875,-24.168746948242188,-28.54119873046875,-12.220232009887695
1667916002915097000,7.16209716796875,-23.838150024414062,-28.715789794921875,-12.40339469909668
1667916002925172000,7.172171875,-23.566360473632812,-28.5909423828125,-12.588634490966797
1667916002935246800,7.182246826171875,-23.563674926757812,-28.607994079589844,-12.88862419128418
1667916002945322000,7.192322021484375,-23.296951293945312,-28.644920349121094,-12.999874114990234
1667916002955395800,7.202395751953125,-22.981887817382812,-28.593185424804688,-13.157506942749023
1667916002965471000,7.212470947265625,-22.955856323242188,-28.69061279296875,-13.184415817260742
1667916002975545900,7.2225458984375,-23.074417114257812,-28.705291748046875,-13.0799560546875
1667916002985621000,7.23262109375,-23.184249877929688,-28.609710693359375,-12.995677947998047
1667916002995695900,7.24269580078125,-23.221359252929688,-28.655677795410156,-13.01740837097168
1667916003005770000,7.25277001953125,-23.237258911132812,-28.522499084472656,-12.769195556640625
1667916003015844900,7.262844970703125,-23.339462280273438,-28.431007385253906,-12.624290466308594
1667916003025920000,7.272919921875,-23.475387573242188,-28.48876953125,-12.377664566040039
1667916003035995000,7.282994873046875,-23.487380981445312,-28.412185668945312,-12.48281478881836
1667916003046069000,7.293069091796875,-23.435226440429688,-28.46209716796875,-12.671558380126953
1667916003056144000,7.303143798828125,-23.287826538085938,-28.405029296875,-12.747600555419922
1667916003066218800,7.31321875,-23.260574340820312,-28.186851501464844,-12.669252395629883
1667916003076294000,7.3232939453125,-23.111343383789062,-28.215858459472656,-12.696174621582031
1667916003086369000,7.333369140625,-23.057388305664062,-28.167747497558594,-12.73112678527832
1667916003096443000,7.34344287109375,-22.903305053710938,-28.01184844970703,-12.752328872680664
1667916003106518000,7.35351806640625,-22.730270385742188,-27.957427978515625,-12.759258270263672
1667916003116593000,7.363593017578125,-22.689407348632812,-27.94921875,-12.859037399291992
1667916003126668000,7.37366796875,-22.802505493164062,-27.88874053955078,-12.80946159362793
1667916003136742000,7.383741943359375,-22.726119995117188,-27.817977905273438,-12.836690902709961
1667916003146817000,7.393817138671875,-22.836898803710938,-27.806373596191406,-12.815208435058594
1667916003156892000,7.403891845703125,-22.769699096679688,-27.871002197265625,-12.849691390991211
1667916003166967000,7.413967041015625,-22.754013061523438,-27.886306762695312,-12.815252304077148
1667916003177041200,7.424041259765625,-22.707473754882812,-27.742164611816406,-12.854036331176758
1667916003187116000,7.434115966796875,-22.677230834960938,-27.680137634277344,-12.901567459106445
1667916003197191000,7.44419091796875,-22.694442749023438,-27.600685119628906,-13.110065460205078
1667916003207265800,7.454265869140625,-22.733779907226562,-27.656578063964844,-13.07486343383789
1667916003217341000,7.4643408203125,-22.715988159179688,-27.678695678710938,-13.092363357543945
1667916003227414800,7.474414794921875,-22.685897827148438,-27.715911865234375,-13.057544708251953
1667916003237490000,7.484489990234375,-22.573287963867188,-27.860076904296875,-12.948135375976562
1667916003247565000,7.49456494140625,-22.567184448242188,-27.917098999023438,-12.814767837524414
1667916003257640000,7.504639892578125,-22.575881958007812,-27.93377685546875,-12.705551147460938
1667916003267714000,7.514714111328125,-22.668502807617188,-27.78455352783203,-12.745332717895508
1667916003277789000,7.524788818359375,-22.737136840820312,-27.853164672851562,-12.692731857299805
1667916003287864000,7.534864013671875,-22.716720581054688,-27.880332946777344,-12.689987182617188
1667916003297939000,7.54493896484375,-22.651138305664062,-27.819862365722656,-12.8507080078125
1667916003308013000,7.555012939453125,-22.536758422851562,-27.82740020751953,-12.845537185668945
1667916003318088000,7.565087890625,-22.341323852539062,-27.966522216796875,-12.835540771484375
1667916003328162800,7.575162841796875,-22.138626098632812,-27.92169189453125,-12.88682746887207
1667916003338238000,7.585238037109375,-22.016555786132812,-28.0167236328125,-12.90406608581543
1667916003348317200,7.595317138671875,-21.900222778320312,-27.960739135742188,-12.87232780456543
1667916003358391000,7.60539111328125,-21.732711791992188,-28.108718872070312,-12.916465759277344
1667916003368466200,7.615466064453125,-21.645645141601562,-28.200523376464844,-12.939071655273438
1667916003378541000,7.625541015625,-21.517471313476562,-28.164093017578125,-12.868110656738281
1667916003388616200,7.6356162109375,-21.655838012695312,-28.174530029296875,-12.811357498168945
1667916003398690300,7.645690185546875,-21.788070678710938,-28.259071350097656,-12.935638427734375
1667916003408765200,7.65576513671875,-21.558609008789062,-28.359207153320312,-12.992733001708984
1667916003418840000,7.665840087890625,-21.378860473632812,-28.526397705078125,-13.03386116027832
1667916003428915000,7.6759150390625,-21.363784790039062,-28.458969116210938,-12.99747085571289
1667916003438989000,7.685989013671875,-21.507400512695312,-28.517784118652344,-12.894294738769531
1667916003449064000,7.69606396484375,-21.464981079101562,-28.5018310546875,-12.718971252441406
1667916003459139000,7.70613916015625,-21.393081665039062,-28.559280395507812,-12.514961242675781
1667916003469214200,7.716214111328125,-21.396041870117188,-28.604393005371094,-12.32478141784668
1667916003479289000,7.7262890625,-21.417251586914062,-28.641250610351562,-12.175958633422852
1667916003489363200,7.73636328125,-21.499130249023438,-28.71544647216797,-11.914823532104492
1667916003499438000,7.74643798828125,-21.663253784179688,-28.76647186279297,-11.806869506835938
1667916003509513200,7.75651318359375,-21.791000366210938,-28.928489685058594,-11.80171012878418
1667916003519588000,7.766588134765625,-21.754226684570312,-28.940078735351562,-11.781259536743164
1667916003529662200,7.776662109375,-21.921188354492188,-29.01012420654297,-11.717103958129883
1667916003539737000,7.786737060546875,-21.865371704101562,-28.90601348876953,-11.780693054199219
1667916003549812000,7.79681201171875,-21.759597778320312,-28.961769104003906,-11.934377670288086
1667916003559887000,7.80688720703125,-21.542251586914062,-28.897056579589844,-12.146934509277344
1667916003569962000,7.8169619140625,-21.559768676757812,-28.86810302734375,-12.215801239013672
1667916003580036000,7.8270361328125,-21.753616333007812,-28.95323944091797,-12.23211669921875
1667916003590111000,7.837111083984375,-21.659225463867188,-28.992202758789062,-12.225320816040039
1667916003600186000,7.84718603515625,-21.623519897460938,-29.01787567138672,-12.125993728637695
1667916003610261200,7.85726123046875,-21.753952026367188,-28.910552978515625,-11.953502655029297
1667916003620335000,7.867335205078125,-21.901382446289062,-28.904327392578125,-11.700935363769531
1667916003630410200,7.87741015625,-22.150497436523438,-29.008026123046875,-11.519105911254883
1667916003640485000,7.887485107421875,-22.351547241210938,-29.02837371826172,-11.352607727050781
1667916003650560300,7.897560302734375,-22.350601196289062,-28.979446411132812,-11.347454071044922
1667916003660634000,7.907634033203125,-22.444137573242188,-28.999435424804688,-11.212026596069336
1667916003670709200,7.917709228515625,-22.373489379882812,-29.003875732421875,-11.231315612792969
1667916003680784000,7.927783935546875,-22.367324829101562,-28.83556365966797,-11.28605842590332
1667916003690859000,7.93785888671875,-22.358840942382812,-28.728050231933594,-11.41221809387207
1667916003700934100,7.94793408203125,-22.379348754882812,-28.665115356445312,-11.494571685791016
1667916003711008000,7.958008056640625,-22.423019409179688,-28.691993713378906,-11.493797302246094
1667916003721083100,7.968083251953125,-22.458389282226562,-28.63567352294922,-11.412187576293945
1667916003731158000,7.978157958984375,-22.495925903320312,-28.63745880126953,-11.443977355957031
1667916003741233200,7.988233154296875,-22.582748413085938,-28.673080444335938,-11.501415252685547
1667916003751307000,7.99830712890625,-22.692520141601562,-28.692237854003906,-11.381694793701172
1667916003761382100,8.008382080078125,-22.770736694335938,-28.677780151367188,-11.295814514160156
1667916003771457300,8.018457275390626,-22.947219848632812,-28.57574462890625,-11.32099723815918
1667916003781532200,8.0285322265625,-23.220443725585938,-28.697372436523438,-11.099527359008789
1667916003791606300,8.038606201171875,-23.563339233398438,-28.613632202148438,-11.016464233398438
1667916003801681200,8.04868115234375,-23.579574584960938,-28.504981994628906,-10.833080291748047
1667916003811756000,8.058756103515625,-23.616348266601562,-28.55164337158203,-10.745628356933594
1667916003821831000,8.068830810546874,-23.598739624023438,-28.531761169433594,-10.584495544433594
1667916003831906000,8.078906005859375,-23.475418090820312,-28.495712280273438,-10.482877731323242
1667916003841980200,8.088980224609376,-23.491867065429688,-28.643699645996094,-10.529090881347656
1667916003852055000,8.099054931640625,-23.219223022460938,-28.63469696044922,-10.528358459472656
1667916003862130200,8.109130126953126,-23.172988891601562,-28.77752685546875,-10.550111770629883
1667916003872205000,8.119205078125,-23.190078735351562,-28.64471435546875,-10.531120300292969
1667916003882279200,8.129279052734375,-23.312057495117188,-28.60503387451172,-10.503238677978516
1667916003892354000,8.13935400390625,-23.461776733398438,-28.687759399414062,-10.563835144042969
1667916003902429200,8.14942919921875,-23.498794555664062,-28.667129516601562,-10.607671737670898
1667916003912504300,8.15950439453125,-23.570388793945312,-28.62810516357422,-10.480947494506836
1667916003922578200,8.169578125,-23.534713745117188,-28.451499938964844,-10.407833099365234
1667916003932653300,8.1796533203125,-23.483627319335938,-28.367080688476562,-10.329626083374023
1667916003942728000,8.18972802734375,-23.601364135742188,-28.374221801757812,-10.165307998657227
1667916003952803000,8.199802978515624,-23.575302124023438,-28.358131408691406,-9.876729965209961
1667916003962877000,8.209876953125,-23.673599243164062,-28.34752655029297,-9.763084411621094
1667916003972952000,8.2199521484375,-23.718978881835938,-28.230369567871094,-9.715259552001953
1667916003983027200,8.230027099609375,-23.647598266601562,-28.24072265625,-9.670406341552734
1667916003993102000,8.24010205078125,-23.612167358398438,-28.232391357421875,-9.75764274597168
1667916004003177200,8.25017724609375,-23.357925415039062,-28.209678649902344,-9.711669921875
1667916004013251000,8.2602509765625,-23.351730346679688,-28.327377319335938,-9.585004806518555
1667916004023326200,8.270326171875,-23.354690551757812,-28.18256378173828,-9.478458404541016
1667916004033401000,8.280401123046875,-23.210433959960938,-28.33147430419922,-9.118013381958008
1667916004043476200,8.290476318359374,-23.221633911132812,-28.145545959472656,-9.076545715332031
1667916004053550000,8.300550048828125,-23.283767700195312,-28.04320526123047,-8.839361190795898
1667916004063625200,8.310625244140626,-23.395706176757812,-27.94115447998047,-8.705924987792969
1667916004073700000,8.3207001953125,-23.358963012695312,-27.839553833007812,-8.579811096191406
1667916004083775000,8.33077490234375,-23.534957885742188,-27.916824340820312,-8.583946228027344
1667916004093849000,8.34084912109375,-23.425064086914062,-28.006622314453125,-8.826040267944336
1667916004103924000,8.350924072265625,-23.361343383789062,-27.96881103515625,-8.860097885131836
1667916004113999000,8.3609990234375,-23.436782836914062,-28.006515502929688,-8.832666397094727
1667916004124074200,8.37107421875,-23.350845336914062,-27.968482971191406,-8.70579719543457
1667916004134149000,8.381149169921875,-23.182662963867188,-28.01085662841797,-8.632596969604492
1667916004144223200,8.39122314453125,-23.202072143554688,-27.954757690429688,-8.32492446899414
1667916004154298000,8.401298095703124,-23.288955688476562,-27.958786010742188,-8.093900680541992
1667916004164373200,8.411373291015625,-23.515670776367188,-28.030075073242188,-7.860019683837891
1667916004174448000,8.4214482421875,-23.488906860351562,-28.134681701660156,-7.56462287902832
1667916004184522200,8.431522216796875,-23.688552856445312,-28.079444885253906,-7.344362258911133
1667916004194597000,8.44159716796875,-24.020980834960938,-28.131637573242188,-6.911218643188477
1667916004204672000,8.451672119140625,-24.270004272460938,-27.957199096679688,-6.667613983154297
1667916004214747100,8.4617470703125,-24.359085083007812,-27.82129669189453,-6.596099853515625
1667916004224821000,8.471821044921874,-24.436843872070312,-27.773399353027344,-6.498252868652344
1667916004234896100,8.481896240234375,-24.505844116210938,-27.809654235839844,-6.460416793823242
1667916004244971000,8.491970947265624,-24.513839721679688,-27.71086883544922,-6.6372833251953125
1667916004255046100,8.502046142578125,-24.383804321289062,-27.708221435546875,-6.597433090209961
1667916004265120000,8.5121201171875,-24.341354370117188,-27.662071228027344,-6.727605819702148
1667916004275195100,8.522195068359375,-24.449844360351562,-27.70087432861328,-6.799028396606445
1667916004285270300,8.532270263671874,-24.718276977539062,-27.5101318359375,-6.8274993896484375
1667916004295345200,8.54234521484375,-24.912734985351562,-27.488182067871094,-6.7659912109375
1667916004305420300,8.552420166015626,-24.982131958007812,-27.490936279296875,-6.5926055908203125
1667916004315494100,8.562494140625,-25.044265747070312,-27.336204528808594,-6.362260818481445
1667916004325569300,8.5725693359375,-25.065841674804688,-27.320152282714844,-6.148048400878906
1667916004335644000,8.582643798828125,-25.114974975585938,-27.31829833984375,-6.123857498168945
1667916004345718800,8.59271875,-25.015823364257812,-27.1783447265625,-6.061399459838867
1667916004355793000,8.60279296875,-25.018386840820312,-27.19805145263672,-6.054887771606445
1667916004365867800,8.61286767578125,-25.181076049804688,-27.289207458496094,-6.040754318237305
1667916004375943000,8.62294287109375,-25.136764526367188,-27.457786560058594,-6.062482833862305
1667916004386018000,8.63301806640625,-25.097030639648438,-27.435325622558594,-6.1351776123046875
1667916004396092000,8.643091796875,-25.116165161132812,-27.22901153564453,-6.105348587036133
1667916004406167000,8.6531669921875,-25.129074096679688,-27.181175231933594,-6.250709533691406
1667916004416242000,8.663241943359376,-25.234237670898438,-27.109573364257812,-6.491428375244141
1667916004426317000,8.673317138671875,-25.373428344726562,-27.101219177246094,-6.4776763916015625
1667916004436391000,8.683390869140625,-25.347640991210938,-27.098388671875,-6.470006942749023
1667916004446466000,8.693466064453125,-25.460494995117188,-27.051185607910156,-6.435283660888672
1667916004456541000,8.703541015625,-25.852645874023438,-26.96710205078125,-6.245515823364258
1667916004466615800,8.71361572265625,-25.952713012695312,-26.824356079101562,-6.3004150390625
1667916004476691000,8.72369091796875,-26.232223510742188,-26.780799865722656,-6.175661087036133
1667916004486764800,8.733764892578124,-26.397750854492188,-26.633834838867188,-6.184396743774414
1667916004496840000,8.74383984375,-26.465591430664062,-26.59331512451172,-6.253623962402344
1667916004506914800,8.753914794921876,-26.446121215820312,-26.615554809570312,-6.107217788696289
1667916004516990000,8.763989990234375,-26.385360717773438,-26.681396484375,-6.133871078491211
1667916004527063800,8.774063720703126,-26.409286499023438,-26.630592346191406,-6.137201309204102
1667916004537139000,8.784138916015625,-26.341964721679688,-26.76018524169922,-6.345726013183594
1667916004547214000,8.794214111328126,-26.330215454101562,-26.713150024414062,-6.414266586303711
1667916004557289000,8.8042890625,-26.278884887695312,-26.77751922607422,-6.46449089050293
1667916004567363000,8.814363037109375,-26.160903930664062,-26.62652587890625,-6.729755401611328
1667916004577438000,8.82443798828125,-26.093002319335938,-26.668357849121094,-6.772722244262695
1667916004587513000,8.83451318359375,-26.357528686523438,-26.760955810546875,-6.795997619628906
1667916004597587700,8.844587646484374,-26.512893676757812,-26.636512756347656,-6.778257369995117
1667916004607662000,8.854662109375,-26.631729125976562,-26.62896728515625,-6.832275390625
1667916004617737000,8.864737060546876,-26.487167358398438,-26.77619171142578,-6.766630172729492
1667916004627811800,8.874811767578125,-26.454849243164062,-26.74187469482422,-6.766319274902344
1667916004637887000,8.884886962890626,-26.480606079101562,-26.94934844970703,-6.818943023681641
1667916004647961900,8.8949619140625,-26.539718627929688,-27.059486389160156,-6.845306396484375
1667916004658036000,8.905035888671875,-26.721786499023438,-27.0401611328125,-6.839033126831055
1667916004668110800,8.91511083984375,-26.753921508789062,-27.112525939941406,-6.762506484985352
1667916004678186000,8.92518603515625,-26.683914184570312,-27.29261016845703,-6.864152908325195
1667916004688261000,8.93526123046875,-26.769943237304688,-27.59583282470703,-6.924215316772461
1667916004698335000,8.9453349609375,-26.807785034179688,-27.64904022216797,-7.068754196166992
1667916004708410000,8.95541015625,-26.606246948242188,-27.64519500732422,-7.112325668334961
1667916004718485000,8.965485107421875,-26.539840698242188,-27.74140167236328,-7.17669677734375
1667916004728559900,8.975559814453124,-26.404342651367188,-27.94385528564453,-7.152063369750977
1667916004738634000,8.985634033203125,-26.437393188476562,-28.029190063476562,-7.158086776733398
1667916004748708900,8.995708984375,-26.702072143554688,-28.085235595703125,-7.180639266967773
1667916004758784000,9.005783935546875,-26.733535766601562,-28.037925720214844,-7.150794982910156
1667916004768859000,9.01585888671875,-26.723342895507812,-28.06597137451172,-7.072940826416016
1667916004778933000,9.02593310546875,-26.749679565429688,-28.13245391845703,-7.011070251464844
1667916004789008000,9.0360078125,-26.659378051757812,-28.208106994628906,-6.94085693359375
1667916004799083000,9.0460830078125,-26.480209350585938,-28.324913024902344,-6.933416366577148
1667916004809158000,9.056157958984375,-26.513992309570312,-28.5081787109375,-6.792730331420898
1667916004819233000,9.06623291015625,-26.406784057617188,-28.539451599121094,-6.785121917724609
1667916004829307000,9.076306884765625,-26.300796508789062,-28.628135681152344,-6.646724700927734
1667916004839382000,9.086382080078126,-26.363052368164062,-28.641128540039062,-6.528085708618164
1667916004849457200,9.09645703125,-26.476242065429688,-28.86125946044922,-6.41368293762207
1667916004859531800,9.10653173828125,-26.655075073242188,-29.168869018554688,-6.286317825317383
1667916004869606100,9.116606201171875,-26.700271606445312,-29.32501983642578,-6.079320907592773
1667916004879680800,9.1266806640625,-26.743942260742188,-29.323341369628906,-5.976327896118164
1667916004889756000,9.136755859375,-26.781173706054688,-29.335464477539062,-5.9213409423828125
1667916004899831000,9.1468310546875,-26.780899047851562,-29.447311401367188,-5.885616302490234
1667916004909905000,9.15690478515625,-26.663070678710938,-29.557945251464844,-5.945749282836914
1667916004919980000,9.16697998046875,-26.678390502929688,-29.593223571777344,-5.902748107910156
1667916004930055000,9.177054931640624,-26.690231323242188,-29.73326873779297,-5.841485977172852
1667916004940130000,9.187130126953125,-26.664657592773438,-30.003944396972656,-5.659971237182617
1667916004950204000,9.197203857421876,-26.611495971679688,-30.04888153076172,-5.513462066650391
1667916004960279000,9.207279052734375,-26.751022338867188,-30.296043395996094,-5.404838562011719
1667916004970354000,9.21735400390625,-26.743759155273438,-30.432518005371094,-5.277807235717773
1667916004980429000,9.227428955078125,-26.796096801757812,-30.512496948242188,-5.083011627197266
1667916004990504000,9.23750390625,-26.799179077148438,-30.64044189453125,-4.836355209350586
1667916005000578000,9.247578125,-26.800308227539062,-30.585731506347656,-4.551425933837891
1667916005010653000,9.25765283203125,-26.912429809570312,-30.721717834472656,-4.33995246887207
1667916005020727800,9.267727783203124,-26.847488403320312,-30.89148712158203,-4.174480438232422
1667916005030803000,9.277802978515625,-26.851364135742188,-31.013839721679688,-3.9935436248779297
1667916005040876800,9.287876708984374,-26.913345336914062,-31.152244567871094,-3.7924118041992188
1667916005050952000,9.297951904296875,-26.907058715820312,-31.050132751464844,-3.7820072174072266
1667916005061027000,9.308027099609374,-27.005203247070312,-31.016197204589844,-3.7624645233154297
1667916005071102000,9.31810205078125,-27.065231323242188,-31.048568725585938,-3.752012252807617
1667916005081176000,9.328176025390626,-27.231826782226562,-31.0189208984375,-3.701345443725586
1667916005091251000,9.3382509765625,-27.238876342773438,-31.174888610839844,-3.711944580078125
1667916005101326000,9.348326171875,-27.256729125976562,-31.04108428955078,-3.675172805786133
1667916005111401000,9.35840087890625,-27.269332885742188,-31.043838500976562,-3.7143421173095703
1667916005121475000,9.36847509765625,-27.312789916992188,-30.915512084960938,-3.4813766479492188
1667916005131550000,9.378550048828124,-27.521987915039062,-30.893699645996094,-3.258852005004883
1667916005141624800,9.388624755859375,-27.261123657226562,-30.9176025390625,-3.1071014404296875
1667916005151700000,9.398699951171874,-27.260482788085938,-30.884178161621094,-2.8434619903564453
1667916005161774800,9.40877490234375,-27.491470336914062,-30.90697479248047,-2.7487030029296875
1667916005171849000,9.418848876953126,-27.585281372070312,-30.846473693847656,-2.721395492553711
1667916005181923800,9.428923828125,-27.691787719726562,-30.852737426757812,-2.780811309814453
1667916005191999000,9.4389990234375,-27.753036499023438,-30.845260620117188,-2.6872406005859375
1667916005202074000,9.44907421875,-27.852828979492188,-30.908782958984375,-2.747915267944336
1667916005212148000,9.45914794921875,-27.724105834960938,-30.996177673339844,-2.6420745849609375
1667916005222223000,9.46922314453125,-27.662551879882812,-30.9647216796875,-2.48870849609375
1667916005232298000,9.479298095703125,-27.802108764648438,-30.880905151367188,-2.4299850463867188
1667916005242372900,9.489372802734374,-27.844100952148438,-30.8890380859375,-2.5090808868408203
1667916005252447000,9.499447021484375,-27.798965454101562,-30.881668090820312,-2.551502227783203
1667916005262521900,9.50952197265625,-27.861068725585938,-30.93738555908203,-2.5781936645507812
1667916005272596700,9.5195966796875,-27.834274291992188,-31.029541015625,-2.4891510009765625
1667916005282671900,9.529671875,-27.951065063476562,-31.146133422851562,-2.3318119049072266
1667916005292745700,9.539745849609375,-28.069717407226562,-31.02789306640625,-2.379457473754883
1667916005302820900,9.54982080078125,-28.172348022460938,-31.000320434570312,-2.2958984375
1667916005312896000,9.55989599609375,-28.047988891601562,-31.010208129882812,-2.1465396881103516
1667916005322971000,9.569970947265626,-28.006454467773438,-30.933013916015625,-1.933095932006836
1667916005333045000,9.580044921875,-27.921432495117188,-31.076278686523438,-2.0714454650878906
1667916005343120000,9.590119873046875,-27.863784790039062,-31.17803955078125,-2.1474552154541016
1667916005353195300,9.6001953125,-27.891372680664062,-31.26202392578125,-2.235074996948242
1667916005363270100,9.610270263671875,-27.838821411132812,-31.32372283935547,-2.2668685913085938
1667916005373345000,9.620344970703124,-27.992538452148438,-31.47051239013672,-2.3116455078125
1667916005383419100,9.630419189453125,-27.828109741210938,-31.47858428955078,-2.3724288940429688
1667916005393494000,9.640493896484376,-27.701644897460938,-31.610443115234375,-2.5838699340820312
1667916005403569200,9.650569091796875,-27.680282592773438,-31.688636779785156,-2.574514389038086
1667916005413644000,9.66064404296875,-27.781784057617188,-31.858627319335938,-2.6443653106689453
1667916005423718100,9.67071826171875,-27.709548950195312,-31.931198120117188,-2.9252700805664062
1667916005433793000,9.68079296875,-27.544113159179688,-32.156494140625,-2.951162338256836
1667916005443868200,9.6908681640625,-27.300827026367188,-32.215538024902344,-3.1199779510498047
1667916005453943000,9.700943115234375,-27.278488159179688,-32.18590545654297,-3.376127243041992
1667916005464017200,9.71101708984375,-27.198135375976562,-32.066017150878906,-3.511993408203125
1667916005474092000,9.721092041015625,-27.204788208007812,-32.184059143066406,-3.5653438568115234
1667916005484167200,9.731167236328124,-27.254409790039062,-32.11253356933594,-3.581357955932617
1667916005494242300,9.7412421875,-27.165664672851562,-32.27247619628906,-3.4559707641601562
1667916005504316200,9.751316162109376,-27.250381469726562,-32.436981201171875,-3.296966552734375
1667916005514391300,9.761391357421875,-27.320083618164062,-32.543663024902344,-3.21954345703125
1667916005524466000,9.7714658203125,-27.532913208007812,-32.540000915527344,-3.1054649353027344
1667916005534541000,9.781541015625,-27.334884643554688,-32.54850769042969,-3.041929244995117
1667916005544615000,9.791614990234375,-27.103713989257812,-32.58201599121094,-3.112550735473633
1667916005554690000,9.80168994140625,-27.056900024414062,-32.724098205566406,-3.3542118072509766
1667916005564765200,9.81176513671875,-27.005325317382812,-32.762779235839844,-3.579875946044922
1667916005574840000,9.821840087890624,-26.985794067382812,-32.940521240234375,-3.7274131774902344
1667916005584915200,9.831915283203125,-26.869552612304688,-32.956809997558594,-3.9215946197509766
1667916005594989000,9.841989013671874,-26.851760864257812,-32.970558166503906,-3.9558563232421875
1667916005605064200,9.852064208984375,-26.830612182617188,-32.957969665527344,-4.006816864013672
1667916005615139000,9.86213916015625,-26.818618774414062,-32.93907165527344,-3.934722900390625
1667916005625214200,9.872214111328125,-26.860305786132812,-32.98576354980469,-4.015199661254883
1667916005635288000,9.8822880859375,-26.748672485351562,-33.06834411621094,-4.013500213623047
1667916005645363200,9.89236328125,-26.688644409179688,-33.163475036621094,-4.159814834594727
1667916005655438000,9.90243798828125,-26.821090698242188,-33.39544677734375,-4.018625259399414
1667916005665513000,9.912512939453125,-26.655776977539062,-33.343162536621094,-3.9152584075927734
1667916005675587000,9.922587158203125,-26.414199829101562,-33.413551330566406,-3.802997589111328
1667916005685662000,9.932661865234374,-26.427902221679688,-33.55580139160156,-3.620309829711914
1667916005695737000,9.942737060546875,-26.363662719726562,-33.61382293701172,-3.6959228515625
1667916005705812200,9.952812255859374,-26.324172973632812,-33.88685607910156,-3.6103668212890625
1667916005715887000,9.96288720703125,-26.148391723632812,-33.958465576171875,-3.698648452758789
1667916005725961200,9.972961181640626,-25.942367553710938,-34.081687927246094,-3.647197723388672
1667916005736036000,9.9830361328125,-25.894699096679688,-34.057373046875,-3.6582508087158203
1667916005746111200,9.993111328125,-26.056259155273438,-34.1295166015625,-3.58074951171875
1667916005756186000,10.00318603515625,-26.208938598632812,-34.109375,-3.6383018493652344
1667916005766260200,10.01326025390625,-26.297561645507812,-34.01477813720703,-3.7612438201904297
1667916005776335000,10.023335205078125,-26.533645629882812,-33.71562957763672,-3.7961807250976562
1667916005786410000,10.033409912109375,-26.593215942382812,-33.599273681640625,-3.8497657775878906
1667916005796485000,10.043485107421875,-26.718460083007812,-33.689781188964844,-3.763181686401367
1667916005806559000,10.05355908203125,-26.727462768554688,-33.63011932373047,-3.70025634765625
1667916005816634000,10.063634033203124,-26.578903198242188,-33.75457000732422,-3.5880985260009766
1667916005826709000,10.073708984375,-26.585769653320312,-33.736236572265625,-3.7634830474853516
1667916005836784000,10.0837841796875,-26.502059936523438,-33.713157653808594,-3.8339977264404297
1667916005846858000,10.09385791015625,-26.502944946289062,-33.68418884277344,-3.930948257446289
1667916005856933000,10.10393310546875,-26.378585815429688,-33.75035858154297,-3.9197120666503906
1667916005867008300,10.11400830078125,-26.395431518554688,-33.86865997314453,-3.9975013732910156
1667916005877083100,10.124083251953126,-26.519058227539062,-33.91966247558594,-3.948545455932617
1667916005887158300,10.134158203125,-26.550399780273438,-33.96894836425781,-3.9737777709960938
1667916005897232100,10.144232177734375,-26.748825073242188,-33.99224090576172,-3.9905223846435547
1667916005907307300,10.154307373046874,-26.800094604492188,-33.87895202636719,-3.9031238555908203
1667916005917382000,10.1643818359375,-26.716842651367188,-33.75846862792969,-3.8395309448242188
1667916005927457000,10.17445703125,-26.848892211914062,-33.832740783691406,-3.7935619354248047
1667916005937531000,10.18453076171875,-26.982559204101562,-33.967384338378906,-3.8069839477539062
1667916005947606000,10.19460595703125,-26.930953979492188,-33.966209411621094,-3.845417022705078
1667916005957681200,10.20468115234375,-26.887832641601562,-33.94054412841797,-3.750133514404297
1667916005967756000,10.214756103515626,-26.732772827148438,-33.93269348144531,-3.7520179748535156
1667916005977830100,10.224830078125,-26.843032836914062,-33.90010070800781,-3.6952667236328125
1667916005987905000,10.234905029296876,-26.932968139648438,-34.06134796142578,-3.58953857421875
1667916005997980200,10.244980224609375,-26.837265014648438,-34.11760711669922,-3.6910400390625
1667916006008055300,10.25505517578125,-26.878128051757812,-33.89704132080078,-3.8041553497314453
1667916006018129200,10.265129150390624,-26.964218139648438,-33.790000915527344,-3.851827621459961
1667916006028204300,10.275204345703125,-26.941909790039062,-33.867713928222656,-3.855396270751953
1667916006038279200,10.285279052734374,-27.030014038085938,-33.978004455566406,-3.842113494873047
1667916006048354000,10.29535400390625,-26.890213012695312,-33.927581787109375,-3.908031463623047
1667916006058428200,10.30542822265625,-26.609359741210938,-33.778175354003906,-3.98663330078125
1667916006068503000,10.3155029296875,-26.555282592773438,-33.700897216796875,-3.915355682373047
1667916006078578000,10.325577880859376,-26.490951538085938,-33.675193786621094,-3.9601612091064453
1667916006088653000,10.335653076171875,-26.429306030273438,-33.73725891113281,-4.008739471435547
1667916006098728200,10.345728271484376,-26.470504760742188,-33.85869598388672,-3.9921112060546875
1667916006108802000,10.355802001953125,-26.556411743164062,-33.974266052246094,-4.013139724731445
1667916006118877200,10.365877197265625,-26.790603637695312,-33.91163635253906,-3.9235000610351562
1667916006128952000,10.3759521484375,-26.978652954101562,-33.82403564453125,-3.862337112426758
1667916006139027200,10.386027099609375,-26.889419555664062,-33.773681640625,-3.708555221557617
1667916006149101000,10.39610107421875,-26.835647583007812,-33.75627136230469,-3.509387969970703
1667916006159176200,10.40617626953125,-26.748214721679688,-33.91657257080078,-3.4849586486816406
1667916006169251300,10.416251220703124,-26.639328002929688,-33.93779754638672,-3.376443862915039
1667916006179326000,10.426325927734375,-26.560165405273438,-34.006866455078125,-3.39068603515625
1667916006189400300,10.436400390625,-26.525405883789062,-34.29907989501953,-3.379129409790039
1667916006199475000,10.446474853515625,-26.375259399414062,-34.32945251464844,-3.482522964477539
1667916006209550000,10.456550048828126,-26.420089721679688,-34.42118835449219,-3.5109119415283203
1667916006219625000,10.466625,-26.311111450195312,-34.463478088378906,-3.5295257568359375
1667916006229700000,10.4767001953125,-26.146347045898438,-34.475242614746094,-3.765871047973633
1667916006239774000,10.48677392578125,-26.186477661132812,-34.537315368652344,-3.7467384338378906
1667916006249849000,10.49684912109375,-26.317092895507812,-34.491615295410156,-3.7499046325683594
1667916006259924200,10.50692431640625,-26.497024536132812,-34.45782470703125,-3.828245162963867
1667916006269999000,10.5169990234375,-26.618942260742188,-34.36016845703125,-3.5809154510498047
1667916006280073200,10.5270732421875,-26.602218627929688,-34.32610321044922,-3.498624801635742
1667916006290148000,10.537148193359375,-26.598953247070312,-34.28478240966797,-3.5017623901367188
1667916006300223200,10.54722314453125,-26.587631225585938,-34.125083923339844,-3.575695037841797
1667916006310298000,10.557298095703125,-26.574050903320312,-34.05908203125,-3.5868148803710938
1667916006320372200,10.567372314453126,-26.623367309570312,-34.05799102783203,-3.4618911743164062
1667916006330447000,10.577447021484375,-26.622024536132812,-34.03236389160156,-3.4723148345947266
1667916006340522000,10.58752197265625,-26.632339477539062,-33.96424865722656,-3.2945022583007812
1667916006350593800,10.59759375,-26.730941772460938,-33.797813415527344,-3.286794662475586
1667916006360667600,10.607667724609374,-26.695602416992188,-33.90400695800781,-3.300952911376953
1667916006370742800,10.61774267578125,-26.625015258789062,-33.94764709472656,-3.186838150024414
1667916006380818000,10.62781787109375,-26.508621215820312,-33.86491394042969,-3.047983169555664
1667916006390892800,10.637892822265625,-26.459671020507812,-33.752960205078125,-2.8267898559570312
1667916006400968000,10.647968017578124,-26.769973754882812,-33.891868591308594,-2.686429977416992
1667916006411041800,10.658041748046875,-26.655075073242188,-33.982704162597656,-2.638469696044922
1667916006421117000,10.668116943359376,-26.511672973632812,-34.03740692138672,-2.4408206939697266
1667916006431191800,10.67819189453125,-26.527511596679688,-34.049583435058594,-2.3049468994140625
1667916006441266700,10.6882666015625,-26.645889282226562,-34.10017395019531,-2.2126235961914062
1667916006451340800,10.6983408203125,-26.697219848632812,-34.2532958984375,-2.209249496459961
1667916006461415700,10.708415771484376,-26.705215454101562,-34.085655212402344,-2.1085052490234375
1667916006471490800,10.71849072265625,-26.763839721679688,-34.095550537109375,-1.9270191192626953
1667916006481565700,10.728565673828125,-26.559829711914062,-33.892120361328125,-1.867452621459961
1667916006491639800,10.738639892578124,-26.647079467773438,-33.95501708984375,-1.8147602081298828
1667916006501714700,10.748714599609375,-26.718032836914062,-33.857322692871094,-1.7794170379638672
1667916006511789800,10.758789794921874,-26.919357299804688,-33.843597412109375,-1.5378398895263672
1667916006521865000,10.768864990234375,-27.188186645507812,-33.74440002441406,-1.4604721069335938
1667916006531939800,10.77893994140625,-27.382644653320312,-33.628929138183594,-1.3558082580566406
1667916006542014000,10.789013916015625,-27.611038208007812,-33.53953552246094,-1.3363361358642578
1667916006552088800,10.7990888671875,-27.635330200195312,-33.30071258544922,-1.2451896667480469
1667916006562163700,10.809163818359375,-27.694656372070312,-33.193939208984375,-1.2311038970947266
1667916006572238800,10.81923876953125,-27.686172485351562,-33.14893341064453,-1.2163105010986328
1667916006582312700,10.829312744140625,-27.667068481445312,-33.14595031738281,-1.2727699279785156
1667916006592387800,10.839387939453125,-27.676071166992188,-33.189109802246094,-1.3444786071777344
1667916006602462700,10.849462646484374,-27.666427612304688,-33.02146911621094,-1.4330787658691406
1667916006612537900,10.859537841796875,-27.808517456054688,-33.033424377441406,-1.6691703796386719
1667916006622611700,10.86961181640625,-27.979202270507812,-33.060707092285156,-1.7909774780273438
1667916006632686800,10.879686767578125,-28.163925170898438,-32.951271057128906,-1.8666667938232422
1667916006642761700,10.88976171875,-28.040481567382812,-32.84687805175781,-2.1083850860595703
1667916006652836900,10.8998369140625,-28.012069702148438,-32.71721649169922,-2.276275634765625
1667916006662912000,10.909912109375,-28.160476684570312,-32.78501892089844,-2.2529296875
1667916006672985900,10.91998583984375,-28.173507690429688,-32.6192626953125,-2.4133872985839844
1667916006683061000,10.93006103515625,-28.158096313476562,-32.65851593017578,-2.4149227142333984
1667916006693135600,10.940135498046875,-28.307907104492188,-32.62555694580078,-2.382741928100586
1667916006703210800,10.950210693359375,-28.546493530273438,-32.64079284667969,-2.3556365966796875
1667916006713284600,10.96028466796875,-28.490737915039062,-32.635398864746094,-2.317401885986328
1667916006723359700,10.97035986328125,-28.402633666992188,-32.638145446777344,-2.2369422912597656
1667916006733435000,10.980434814453124,-28.337814331054688,-32.60052490234375,-2.1683578491210938
1667916006743509800,10.990509765625,-28.486892700195312,-32.64659118652344,-2.123262405395508
1667916006753583900,11.000583984375,-28.490615844726562,-32.513580322265625,-2.187124252319336
1667916006763658800,11.01065869140625,-28.363052368164062,-32.41331481933594,-2.0429248809814453
1667916006773734000,11.02073388671875,-28.184188842773438,-32.384979248046875,-2.0750961303710938
1667916006783808800,11.030808837890625,-28.186782836914062,-32.456947326660156,-2.038330078125
1667916006793883000,11.0408828125,-28.170242309570312,-32.506797790527344,-1.9215660095214844
1667916006803957800,11.050957763671875,-28.198074340820312,-32.42143249511719,-2.0520401000976562
1667916006814033000,11.061032958984375,-28.160781860351562,-32.59320831298828,-2.105091094970703
1667916006824107800,11.071107666015624,-28.107833862304688,-32.58625030517578,-2.105703353881836
1667916006834182700,11.0811826171875,-28.070083618164062,-32.68736267089844,-2.001718521118164
1667916006844256800,11.0912568359375,-27.931869506835938,-32.67340850830078,-1.8554954528808594
1667916006854331600,11.10133154296875,-27.767532348632812,-32.64643096923828,-1.6315498352050781
1667916006864406800,11.11140673828125,-27.638504028320312,-32.627227783203125,-1.3281078338623047
1667916006874482000,11.12148193359375,-27.635208129882812,-32.74163818359375,-1.0768051147460938
1667916006884555800,11.1315556640625,-27.677719116210938,-32.801544189453125,-0.7372293472290039
1667916006894631000,11.141630859375,-27.670211791992188,-32.84907531738281,-0.47736644744873047
1667916006904705800,11.151705810546876,-27.450180053710938,-32.91832733154297,-0.3181753158569336
1667916006914781000,11.161781005859375,-27.356216430664062,-32.907806396484375,-0.2214975357055664
1667916006924854800,11.171854736328125,-27.447280883789062,-32.891204833984375,-0.28612327575683594
1667916006934930000,11.181929931640624,-27.756576538085938,-32.974021911621094,-0.37371349334716797
1667916006945004800,11.1920048828125,-27.818893432617188,-32.922569274902344,-0.5023117065429688
1667916006955079700,11.20207958984375,-27.860671997070312,-32.93781280517578,-0.5008916854858398
1667916006965154800,11.21215478515625,-27.893539428710938,-32.910377502441406,-0.45643043518066406
1667916006975228700,11.222228759765626,-27.898941040039062,-32.95520782470703,-0.30059146881103516
1667916006985303800,11.2323037109375,-27.990921020507812,-32.94744110107422,-0.23944854736328125
1667916006995378700,11.242378662109376,-28.077255249023438,-32.97941589355469,-0.25734901428222656
1667916007005453800,11.252453857421875,-27.861434936523438,-32.942543029785156,-0.16153621673583984
1667916007015527700,11.262527587890625,-27.989181518554688,-32.94164276123047,-0.11013221740722656
1667916007025602800,11.272602783203125,-28.021804809570312,-32.99498748779297,-0.08374595642089844
1667916007035678000,11.282677978515625,-28.089065551757812,-33.03630065917969,-0.10222625732421875
1667916007045752800,11.2927529296875,-28.033859252929688,-33.07136535644531,-0.11514949798583984
1667916007055827000,11.302826904296875,-27.841659545898438,-33.0953369140625,-0.14915180206298828
1667916007065901800,11.31290185546875,-27.848373413085938,-33.070526123046875,-0.15773773193359375
1667916007075977000,11.32297705078125,-27.902420043945312,-33.02986145019531,-0.05431842803955078
1667916007086051600,11.333051513671874,-28.066482543945312,-32.93977355957031,0.041474342346191406
1667916007096126000,11.3431259765625,-27.986526489257812,-32.91521453857422,0.036895751953125
1667916007106200600,11.35320068359375,-27.981216430664062,-33.059486389160156,0.058035850524902344
1667916007116275700,11.363275634765625,-28.110488891601562,-33.109413146972656,-0.007174491882324219
1667916007126350800,11.373350830078126,-28.378555297851562,-33.061256408691406,-0.010647773742675781
1667916007136425700,11.38342578125,-28.287185668945312,-33.05860900878906,0.14132976531982422
1667916007146499800,11.393499755859375,-28.276107788085938,-33.22300720214844,0.20807456970214844
1667916007156574700,11.40357470703125,-28.023788452148438,-33.19818115234375,0.17699909210205078
1667916007166649900,11.41364990234375,-28.100997924804688,-33.33887481689453,0.04700946807861328
1667916007176725000,11.42372509765625,-28.100021362304688,-33.26765441894531,-0.10329532623291016
1667916007186798800,11.433798828125,-28.095993041992188,-33.30189514160156,-0.2072458267211914
1667916007196874000,11.4438740234375,-28.099319458007812,-33.320579528808594,-0.40587615966796875
1667916007206948900,11.453948974609375,-28.139175415039062,-33.327537536621094,-0.5968608856201172
1667916007217023700,11.464023681640626,-28.303329467773438,-33.41388702392578,-0.6361312866210938
1667916007227098600,11.4740986328125,-28.265884399414062,-33.51072692871094,-0.6071367263793945
1667916007237172700,11.4841728515625,-28.206832885742188,-33.4029541015625,-0.7344627380371094
1667916007247247600,11.49424755859375,-28.209274291992188,-33.4622802734375,-0.8830575942993164
1667916007257322800,11.50432275390625,-28.446548461914062,-33.63463592529297,-0.8858661651611328
1667916007267398000,11.51439794921875,-28.565505981445312,-33.583335876464844,-0.9649333953857422
1667916007277471700,11.5244716796875,-28.568161010742188,-33.524314880371094,-0.9723281860351562
1667916007287547000,11.534546875,-28.475479125976562,-33.604042053222656,-0.9761581420898438
1667916007297621800,11.544621826171875,-28.394668579101562,-33.74201202392578,-0.9059019088745117
1667916007307697000,11.55469677734375,-28.247940063476562,-33.864845275878906,-0.8490095138549805
1667916007317770800,11.564770751953125,-28.188766479492188,-33.80432891845703,-0.6596355438232422
1667916007327846000,11.574845947265626,-28.086288452148438,-33.853424072265625,-0.6234874725341797
1667916007337921000,11.584921142578125,-27.994644165039062,-33.99431610107422,-0.6182537078857422
1667916007347995100,11.5949951171875,-27.938919067382812,-33.98213195800781,-0.6810150146484375
1667916007358070000,11.605070068359375,-27.613723754882812,-33.97901916503906,-0.6639575958251953
1667916007368144100,11.61514404296875,-27.440567016601562,-33.927330017089844,-0.5520601272583008
1667916007378219000,11.625218994140624,-27.562057495117188,-33.94579315185547,-0.5648927688598633
1667916007388294000,11.6352939453125,-27.715896606445312,-34.016563415527344,-0.5739374160766602
1667916007398369000,11.645369140625,-27.715347290039062,-34.023033142089844,-0.6056575775146484
1667916007408443000,11.65544287109375,-27.674423217773438,-34.05231475830078,-0.7540493011474609
1667916007418518000,11.66551806640625,-27.722885131835938,-34.00804138183594,-0.8870277404785156
1667916007428593200,11.67559326171875,-27.693466186523438,-33.98668670654297,-0.8740825653076172
1667916007438668000,11.68566796875,-27.631210327148438,-33.969825744628906,-0.8687171936035156
1667916007448742100,11.6957421875,-27.454269409179688,-34.01268768310547,-0.8890113830566406
1667916007458817000,11.705817138671875,-27.690383911132812,-34.003326416015625,-0.7061920166015625
1667916007468892200,11.71589208984375,-27.775405883789062,-33.95500946044922,-0.6014242172241211
1667916007478967000,11.725967041015625,-27.850875854492188,-34.12091827392578,-0.5625896453857422
1667916007489042000,11.7360419921875,-27.955703735351562,-34.11499786376953,-0.3783988952636719
1667916007499116300,11.7461162109375,-27.740676879882812,-34.02650451660156,-0.37900638580322266
1667916007509191000,11.75619091796875,-27.805374145507812,-33.942955017089844,-0.3257884979248047
1667916007519266000,11.76626611328125,-27.811782836914062,-33.96696472167969,-0.27032947540283203
1667916007529341000,11.7763408203125,-27.726669311523438,-34.05431365966797,-0.2813224792480469
1667916007539415000,11.7864150390625,-27.661666870117188,-34.20238494873047,-0.3478517532348633
1667916007549490000,11.796489990234376,-27.615219116210938,-34.298912048339844,-0.41031932830810547
1667916007559565000,11.80656494140625,-27.429306030273438,-34.197265625,-0.41422367095947266
1667916007569640200,11.81664013671875,-27.302993774414062,-34.00151824951172,-0.26102638244628906
1667916007579714000,11.826714111328124,-27.215774536132812,-33.885292053222656,-0.2579345703125
1667916007589789200,11.8367890625,-27.113235473632812,-33.987831115722656,-0.337188720703125
1667916007599864000,11.846864013671874,-27.178451538085938,-34.004669189453125,-0.4910430908203125
1667916007609939200,11.856939208984375,-27.219924926757812,-33.96154022216797,-0.5097894668579102
1667916007620014000,11.86701416015625,-27.062850952148438,-33.95263671875,-0.4915580749511719
1667916007630088200,11.877088134765625,-26.918869018554688,-33.928428649902344,-0.5602703094482422
1667916007640163000,11.8871630859375,-26.844650268554688,-33.92887878417969,-0.8045101165771484
1667916007650238000,11.897238037109375,-26.789840698242188,-33.96788024902344,-1.0286369323730469
1667916007660313000,11.90731298828125,-26.703201293945312,-33.98187255859375,-1.0290031433105469
1667916007670387000,11.917386962890625,-26.683334350585938,-34.00579071044922,-1.0616378784179688
1667916007680462000,11.927462158203125,-26.727859497070312,-34.011512756347656,-1.04803466796875
1667916007690537000,11.937536865234375,-26.748794555664062,-33.95391082763672,-1.1604290008544922
1667916007700612000,11.947612060546875,-26.703598022460938,-33.91416931152344,-1.1883678436279297
1667916007710686000,11.95768603515625,-26.688064575195312,-33.95635986328125,-1.2035140991210938
1667916007720761000,11.967760986328125,-26.660110473632812,-33.946319580078125,-1.1582984924316406
1667916007730836200,11.977836181640624,-26.552749633789062,-33.990234375,-1.1953811645507812
1667916007740911000,11.9879111328125,-26.460891723632812,-34.00288391113281,-1.2547073364257812
1667916007750986000,11.997986083984374,-26.492538452148438,-34.067298889160156,-1.1517353057861328
1667916007761060000,12.00806005859375,-26.454696655273438,-34.09667205810547,-1.1423397064208984
1667916007771135000,12.018135009765626,-26.530685424804688,-34.21033477783203,-0.9921474456787109
1667916007781209900,12.0282099609375,-26.465072631835938,-34.250038146972656,-0.9290752410888672
1667916007791285000,12.038284912109376,-26.404586791992188,-34.04755401611328,-0.9477138519287109
1667916007801359000,12.048359130859374,-26.338088989257812,-33.995697021484375,-0.7917461395263672
1667916007811434000,12.05843408203125,-26.359451293945312,-33.957252502441406,-0.7335367202758789
1667916007821509000,12.068509033203124,-26.373825073242188,-33.87120819091797,-0.5889902114868164
1667916007831584000,12.078583984375,-26.342300415039062,-33.713531494140625,-0.8693056106567383
1667916007841658000,12.088658203125,-26.333297729492188,-33.76023864746094,-0.9974651336669922
1667916007851733000,12.09873291015625,-26.400527954101562,-33.863121032714844,-1.1370429992675781
1667916007861808000,12.10880810546875,-26.388229370117188,-33.78733825683594,-1.0566596984863281
1667916007871883300,12.11888330078125,-26.209152221679688,-33.72355651855469,-1.118795394897461
1667916007881958000,12.1289580078125,-26.238906860351562,-33.696571350097656,-1.334747314453125
1667916007892032300,12.1390322265625,-26.075241088867188,-33.61042022705078,-1.2555561065673828
1667916007902107000,12.14910693359375,-26.059555053710938,-33.68126678466797,-1.0881614685058594
1667916007912182000,12.15918212890625,-26.148178100585938,-33.83881378173828,-1.0443305969238281
1667916007922257000,12.1692568359375,-26.211013793945312,-33.89888000488281,-1.0059394836425781
1667916007932331000,12.1793310546875,-26.202987670898438,-33.951133728027344,-0.7913541793823242
1667916007942406100,12.18940625,-25.990097045898438,-33.92701721191406,-0.6489248275756836
1667916007952481000,12.19948095703125,-25.981185913085938,-34.18946838378906,-0.47145748138427734
1667916007962556200,12.20955615234375,-26.032272338867188,-34.34113311767578,-0.35143566131591797
1667916007972631000,12.219631103515624,-25.934127807617188,-34.41326904296875,-0.18207073211669922
1667916007982705200,12.229705078125,-25.783401489257812,-34.41588592529297,-0.008650779724121094
1667916007992780000,12.239780029296876,-25.574508666992188,-34.38312530517578,0.1536874771118164
1667916008002855200,12.249855224609375,-25.543014526367188,-34.417137145996094,0.2681255340576172
1667916008012930000,12.259929931640626,-25.463577270507812,-34.356773376464844,0.2818336486816406
1667916008023004200,12.270004150390625,-25.225570678710938,-34.323158264160156,0.21390724182128906
1667916008033079000,12.2800791015625,-25.108047485351562,-34.49571228027344,0.21540260314941406
1667916008043154000,12.29015380859375,-25.078384399414062,-34.47035217285156,0.2592630386352539
1667916008053229000,12.30022900390625,-25.173995971679688,-34.41455841064453,0.32070446014404297
1667916008063303000,12.310302978515624,-25.478286743164062,-34.495323181152344,0.3359537124633789
1667916008073378000,12.3203779296875,-25.504257202148438,-34.639854431152344,0.26546478271484375
1667916008083453200,12.330453125,-25.533218383789062,-34.60969543457031,0.3137369155883789
1667916008093528000,12.340528076171875,-25.517166137695312,-34.670867919921875,0.4075336456298828
1667916008103603200,12.350603271484376,-25.689712524414062,-34.680702209472656,0.5809507369995117
1667916008113677000,12.360677001953125,-25.745315551757812,-34.588478088378906,0.7617568969726562
1667916008123752200,12.370752197265626,-25.645339965820312,-34.518470764160156,1.0314273834228516
1667916008133827000,12.3808271484375,-25.557846069335938,-34.57134246826172,1.2560129165649414
1667916008143902000,12.39090185546875,-25.511856079101562,-34.64051055908203,1.5131120681762695
1667916008153976000,12.40097607421875,-25.606307983398438,-34.65010070800781,1.6168394088745117
1667916008164051000,12.411051025390625,-25.645736694335938,-34.53485107421875,1.8071317672729492
1667916008174126000,12.4211259765625,-25.582687377929688,-34.42262268066406,1.7786235809326172
1667916008184201000,12.431200927734375,-25.511917114257812,-34.212852478027344,1.7528266906738281
1667916008194276000,12.441276123046874,-25.653579711914062,-34.32218933105469,1.9287309646606445
1667916008204350000,12.451349853515625,-25.646347045898438,-34.266754150390625,1.9882268905639648
1667916008214425000,12.461425048828126,-25.667373657226562,-34.247901916503906,1.962575912475586
1667916008224500200,12.471500244140625,-25.615798950195312,-34.30577087402344,1.935420036315918
1667916008234575000,12.4815751953125,-25.749465942382812,-34.27070617675781,1.979269027709961
1667916008244649200,12.491649169921875,-25.931625366210938,-34.31689453125,1.9463815689086914
1667916008254724000,12.50172412109375,-25.978073120117188,-34.28019714355469,1.915811538696289
1667916008264799200,12.51179931640625,-25.948226928710938,-34.15159606933594,1.8847007751464844
1667916008274873900,12.521873779296875,-25.856063842773438,-34.01945495605469,1.8835639953613281
1667916008284949000,12.531948974609374,-25.991470336914062,-33.91925811767578,1.7807178497314453
1667916008295022800,12.54202294921875,-25.997879028320312,-33.843170166015625,1.690633773803711
1667916008305098000,12.552097900390624,-25.946670532226562,-33.85462951660156,1.5838127136230469
1667916008315173000,12.562173095703125,-26.107040405273438,-33.879234313964844,1.6672859191894531
1667916008325248000,12.572248046875,-26.162887573242188,-33.902610778808594,1.7608509063720703
1667916008335322000,12.582322021484375,-25.987319946289062,-33.85113525390625,1.7595243453979492
1667916008345397000,12.59239697265625,-26.100204467773438,-33.905052185058594,1.8009443283081055
1667916008355472100,12.60247216796875,-26.207412719726562,-33.898582458496094,1.8713083267211914
1667916008365547300,12.61254736328125,-26.324844360351562,-33.833396911621094,2.083171844482422
